AccX_mean,AccX_min,AccX_max,AccX_std,AccX_max_to_min,AccX_mean_abs_change,AccX_mean_change_of_abs_change,AccX_abs_max,AccX_abs_min,AccX_entropy,AccX_skew,AccX_kurtosis,AccY_mean,AccY_min,AccY_max,AccY_std,AccY_max_to_min,AccY_mean_abs_change,AccY_mean_change_of_abs_change,AccY_abs_max,AccY_abs_min,AccY_entropy,AccY_skew,AccY_kurtosis,AccZ_mean,AccZ_min,AccZ_max,AccZ_std,AccZ_max_to_min,AccZ_mean_abs_change,AccZ_mean_change_of_abs_change,AccZ_abs_max,AccZ_abs_min,AccZ_entropy,AccZ_skew,AccZ_kurtosis,GyroX_mean,GyroX_min,GyroX_max,GyroX_std,GyroX_max_to_min,GyroX_mean_abs_change,GyroX_mean_change_of_abs_change,GyroX_abs_max,GyroX_abs_min,GyroX_entropy,GyroX_skew,GyroX_kurtosis,GyroY_mean,GyroY_min,GyroY_max,GyroY_std,GyroY_max_to_min,GyroY_mean_abs_change,GyroY_mean_change_of_abs_change,GyroY_abs_max,GyroY_abs_min,GyroY_entropy,GyroY_skew,GyroY_kurtosis,GyroZ_mean,GyroZ_min,GyroZ_max,GyroZ_std,GyroZ_max_to_min,GyroZ_mean_abs_change,GyroZ_mean_change_of_abs_change,GyroZ_abs_max,GyroZ_abs_min,GyroZ_entropy,GyroZ_skew,GyroZ_kurtosis,total_angular_velocity_mean,total_angular_velocity_min,total_angular_velocity_max,total_angular_velocity_std,total_angular_velocity_max_to_min,total_angular_velocity_mean_abs_change,total_angular_velocity_mean_change_of_abs_change,total_angular_velocity_abs_max,total_angular_velocity_abs_min,total_linear_acceleration_mean,total_linear_acceleration_min,total_linear_acceleration_max,total_linear_acceleration_std,total_linear_acceleration_max_to_min,total_linear_acceleration_mean_abs_change,total_linear_acceleration_mean_change_of_abs_change,total_linear_acceleration_abs_max,total_linear_acceleration_abs_min,L1_norm_gyro_mean,L1_norm_gyro_min,L1_norm_gyro_max,L1_norm_gyro_std,L1_norm_gyro_max_to_min,L1_norm_gyro_mean_abs_change,L1_norm_gyro_mean_change_of_abs_change,L1_norm_gyro_abs_max,L1_norm_gyro_abs_min,L1_norm_gyro_entropy,L1_norm_gyro_skew,L1_norm_gyro_kurtosis,L1_norm_acceleration_mean,L1_norm_acceleration_min,L1_norm_acceleration_max,L1_norm_acceleration_std,L1_norm_acceleration_max_to_min,L1_norm_acceleration_mean_abs_change,L1_norm_acceleration_mean_change_of_abs_change,L1_norm_acceleration_abs_max,L1_norm_acceleration_abs_min,L1_norm_acceleration_entropy,L1_norm_acceleration_skew,L1_norm_acceleration_kurtosis
-0.009248467518217465,-0.04681357308296989,0.11066784930557141,0.07938594353457952,-0.14275007386377156,0.0530163662685634,-0.011994806974196807,0.046620515134464725,0.011610122422976356,0.06986777698850646,0.040336421547415624,-0.019964455442016433,0.0941104013829518,-0.006190320283445026,0.04499626725470101,0.03225688339254403,-0.06374496087069438,0.024278358983257104,-0.018687929886175663,0.04109831166739766,0.015261314667994257,0.06536755549365662,-0.013022232211890751,-0.017253886988133734,0.08941927200343203,0.0594389080092922,0.06341420546134115,0.032292968112633394,0.004632178810391084,0.03887594263173978,0.013932607173307366,0.0632712063589975,0.11020576205301924,0.073707759762649,-8.362704195449239e-05,-0.006643665197479279,0.15977397754083986,-0.01417525765149133,0.07353557108332323,0.04448711713259665,-0.22984368753663698,0.02874006942172867,0.029285525558404274,0.051470685848684694,0.0030894560274988036,0.07113088688702725,-0.03161940150061529,-0.023528417590280393,-0.14761498015465763,-0.10694519028036104,0.03265370750367546,0.06466632563068916,-0.006948997185817518,0.04467028256436738,0.0029532485193526203,0.08990603261935723,0.04315745177477121,0.06599135635140321,0.04591541559879295,-0.008408462727468834,0.043135411220714764,-0.02326606382190312,0.07795055118711768,0.05659319299899581,-0.08557377272865391,0.04110903021597792,-0.00940489234247187,0.060740068351936245,0.012234561117491731,0.07060445006727681,0.06341273824432955,-0.024485197141052056,0.07795290976958094,0.03133144003734572,0.07503708091904882,0.08267545331960433,0.03904807662030732,0.05000879675246452,0.014137485175942493,0.07503708091904882,0.03133144003734572,0.07020108072684804,0.08566517778421054,0.05071890154613459,0.03813885153394549,0.015011951093742839,0.0411069310410085,0.033251835430979884,0.05071890154613459,0.08566517778421054,0.08201644408043944,0.03494776386356747,0.07378224208282425,0.08605457614206276,0.036621960151639786,0.04713407385438799,0.012368280133048647,0.07378224208282425,0.03494776386356747,0.07522536119715517,-0.002360434850529019,-0.03849510318485891,0.07044067257249219,0.08735800424791702,0.049829927796438925,0.046456846314466164,0.014452681023594514,0.043854625480967406,0.00715427923792866,0.049829927796438925,0.08735800424791702,0.07075832149567066,0.02046977607740971,-0.028077878662683436
-0.01776692776410951,-0.03775609820846647,0.07665020146664225,0.06812791363188152,-0.1225893819405865,0.03811416792002441,-0.023736910578222217,0.03738062830671668,0.01605220587744323,0.06771658228973226,0.04061472484226918,-0.024936989102108887,0.06156135689287964,-0.011816043043453104,0.03262311482417171,0.03024526484601599,-0.024212289129105845,0.019835363317938677,-0.018000891573943436,0.029797025895854364,0.0076306573339971285,0.07524867840534191,0.003996247685325436,-0.022898567328919168,0.08621436635678796,0.07021248806303576,0.05720046377814051,0.02638852089507676,0.0035371605225280245,0.03566200038644207,0.011074580191145052,0.057071476670056326,0.13018107182278155,0.07128953989224192,0.003312496912706459,-0.020623886635723943,0.10433841312998687,-0.02770937957442602,0.05793533648424534,0.041432536159771355,-0.09263664212244664,0.02404295056543567,-0.02389442922602072,0.04055141559096016,0.010658605082556729,0.056966467983268716,-0.02080652927157347,-0.007781089534584112,-0.11170403215530289,-0.06792781490429217,0.0159461446965784,0.045677310284702115,-0.005342677396183386,0.02731590749909757,0.003942743268595469,0.057105142611246884,0.03002257347776328,0.0725470122547936,0.029035342027726726,-0.022675601660309463,0.060274379805132755,-0.01961168524440485,0.05685433985719192,0.04674026311741592,-0.0740445521671246,0.028086909669041597,-0.0135331118768055,0.044301630154486425,0.022430050975518742,0.07435556767448961,-0.0011474925740861583,-0.05542806238156889,0.059060125998076696,0.015883928223386842,0.05420584128251879,0.06807626010237083,0.05564065647146075,0.03406571948571339,-0.022129263782148665,0.05420584128251879,0.015883928223386842,0.06586703324162942,0.09004122130500376,0.04366794559046903,0.02717034232395101,0.012296825373661592,0.03494087055062154,-0.014137352020695245,0.04366794559046903,0.09004122130500376,0.06403166632947531,0.01668487609437146,0.05776571658718687,0.07602063570137649,0.06005598706185501,0.03660950892960003,-0.0219845417345639,0.05776571658718687,0.01668487609437146,0.07077603736889174,0.01111572013871903,-0.048448971478617354,0.06488596364914244,0.09078090091880378,0.04356429100819626,0.031282560832941765,0.012158976682966227,0.030482282568542768,-0.03580424336909267,0.04356429100819626,0.09078090091880378,0.07229395768793147,0.03528290252792623,-0.01609716900166807
-0.047729375908348255,-0.04467431227972043,0.1564462555790469,0.05206903590541114,-0.21146279067447862,0.10405554227062443,-0.0004048643822368884,0.06590536521419602,0.01807144749987497,0.08233262950229418,0.18365662171121283,0.18591652623700727,0.09700133210524374,-0.012945158356175969,0.08974106337802137,0.03801788748441013,-0.06079478611700991,0.06591329915722158,0.02418442399690146,0.08196693675047637,0.12754003008599238,0.0760829617969641,0.17639830252604602,0.19406247158041104,0.07498232723919877,0.006249271765373357,0.09254827206564485,0.052959635865910355,0.0642996317156327,0.06731436974658543,0.009645444760179634,0.09233957561139516,0.011586783476434678,0.06718205208019713,0.06930138670696273,0.038554247815504004,0.009772807606924585,-0.04054966909837906,0.10828502105769242,0.053949659085003716,-0.11831699838471582,0.07580473600547927,0.00020559474896792807,0.07579330953537235,0.014520425116930233,0.061551282836046675,0.05964639743157798,0.049033958413769826,-0.01448408532272646,-0.08511124981388517,0.0779897751179087,0.09672125480496174,-0.020854587077828512,0.07633324936051093,-0.005602041717873433,0.07155080824094438,0.027970245863271997,0.07366497692231216,-0.0003774718302823838,-0.02825525684687465,0.0547062056666492,-0.040345055540193235,0.05322632949175594,0.05608880659192841,-0.03369617495529191,0.0346020209338577,0.008846188201693531,0.04147463798801496,0.09668706409542195,0.06827388198137102,-0.047772424856889824,-0.049763888038010226,0.07002619327995835,0.08885615267371975,0.056450901259395295,0.06487818102163073,0.010358275242950802,0.06171228394580234,-0.018090500585118453,0.056450901259395295,0.08885615267371975,0.061715412855402135,0.02076886085902541,0.08299661502589331,0.06039951466830616,0.10132563304450028,0.08776631471233048,0.0005155196843045404,0.08299661502589331,0.02076886085902541,0.07113918189140649,0.07691243560915352,0.054181042271216284,0.06583280479881505,0.01221968246527443,0.05701462021878006,-0.026276008462062152,0.054181042271216284,0.07691243560915352,0.06882441730983183,0.006721822442433683,-0.052285545843098566,0.06341354215079889,0.022844074983642826,0.08489216983083593,0.06119806828047373,0.09415750040148321,0.08607593839513328,0.012844337526493908,0.08489216983083593,0.022844074983642826,0.06704175399908617,0.1444098391716052,0.18071775729430212
-0.01230512096740556,-0.030362509928346326,0.07953147106888808,0.05893530408596043,-0.158171417815386,0.03998209177248365,0.016448729786464587,0.03350384211764632,0.0024228418320351355,0.06674566651306019,0.04950205777633314,-0.020670589108801853,0.19512524648383706,0.011017983925802999,0.08373525015015376,0.045619917526823914,0.0666482389677215,0.0306421151562589,0.0023359677841631697,0.07648139763991171,0.30849466150996463,0.0652270433719489,0.03490781886700173,-0.008546009789790749,0.09201879521280502,0.08155175143254399,0.06699560890413438,0.02806017246406159,0.0035668317877328107,0.022998276951506202,0.029710896418551163,0.06684453373312875,0.15120521581548715,0.0742907736527723,0.0746095041861883,0.013891338590573907,0.05458918106589592,-0.027191201209485004,0.05945716714024956,0.0421630643337298,-0.09688173154937042,0.027946556335101243,0.0048885333854720905,0.04161660984261471,0.020853797831760015,0.06751629217920864,-0.027025138554278568,-0.00877682630893838,-0.10067356386936585,-0.09816227156084312,0.05690802800202162,0.09958982063109635,-0.013194101838099416,0.03298540666482795,-0.012726379981958618,0.08252246188728339,0.0011141176323868406,0.07032041528610533,0.03393130201902446,-0.03130374433304751,0.07472929096486795,-0.0718190058066376,0.08915500594303513,0.10157410549370244,-0.0317066784595917,0.04903033256524171,-0.02830779573959257,0.06947072307286238,0.04757888589044102,0.07151161436484961,-0.04071353390518677,-0.046688242356646426,0.09117786733469355,0.020895145031732773,0.06643932423304222,0.08003042568565837,0.05184225557264247,0.04270979219480058,-0.020536079160953877,0.06643932423304222,0.020895145031732773,0.07415478310106498,0.08448343943656643,0.06091410028469478,0.045657506388908004,0.018281754386587225,0.03007154386220851,0.030739713887611566,0.06091410028469478,0.08448343943656643,0.09592671113014457,0.017915725090483982,0.06290315374366783,0.0789821264038824,0.06090418839804247,0.041060133610946695,-0.022648824213131896,0.06290315374366783,0.017915725090483982,0.06700152089376696,-0.06911563516172496,-0.013565850479226815,0.07804353222562888,0.08585121956186596,0.05876082947830568,0.05137529167312708,0.01734212500615006,0.03388832075562294,0.023924876923441113,0.05876082947830568,0.08585121956186596,0.06580265186873428,0.021552745007833714,-0.025101377560019008
-0.033967297327454044,-0.0502163649029513,0.051893923584725055,0.055152995467597325,-0.062401912233142835,0.046146591008387514,-0.029556965637772343,0.04971698243254247,0.002321941779634287,0.06646930411731676,0.02831957541306106,-0.02209388899985712,0.12775909053557,0.01140724605112699,0.07511961091935046,0.027533591964847497,0.057750401986263994,0.033717720846151905,-0.04832325806756921,0.06861211763237023,0.3193936869940413,0.05314170468053679,0.1488438799609612,0.1638114264890988,0.08216382303575592,0.02935182934366389,0.06209239072435012,0.04194780166048706,0.009184865272878968,0.036060331496284986,0.00910964091345054,0.06195237231567722,0.0544212676310096,0.06795023107971195,-0.037272153265982925,-0.005083477993901136,0.02248894390822616,-0.018944257427342626,0.027281314916163635,0.02813152142465765,-0.06380486363773262,0.041268296853698004,-0.005254033166404988,0.01909535710272526,0.02139445061298185,0.07150149344652233,-0.014316111798156747,-0.03815690014442886,-0.15391995411295556,-0.07536615773519083,0.03637751507689758,0.0471272037795261,-0.010985189409446318,0.05489001423990779,-0.061972591489488645,0.06335836345676203,0.005570595843490984,0.08086136461332985,0.10686917484826837,0.05699605714729784,0.08402177397056777,-0.0015667983243558923,0.045003871427506184,0.023998555424432026,-0.733636923289301,0.03534472709306829,-0.12114619217057764,0.0350675933008698,0.059813447007932743,0.07137753339434708,-0.014147287645524347,-0.048642846821655567,0.06991589129962249,0.07677383545057787,0.05055329078286092,0.04214373320999594,0.010735944703607635,0.056425989094601545,-0.04574125904154652,0.05055329078286092,0.07677383545057787,0.0659421624509383,0.08134321097918983,0.05305949448685522,0.03666511139725576,0.016539158847512107,0.03883397514207167,-0.013640335296012263,0.05305949448685522,0.08134321097918983,0.0667786229268494,0.06990604977110323,0.04693373110194266,0.039561787511023426,0.01164607141490923,0.04229376491139477,-0.01161964684525856,0.04693373110194266,0.06990604977110323,0.07095428514071327,-0.021323706859660452,-0.026471274518860492,0.06708557522677817,0.08622328679938744,0.04984492064113782,0.03079787279067706,0.014647287244557768,0.037396897176490376,-0.045121393522544594,0.04984492064113782,0.08622328679938744,0.06537393417217914,0.03005986866778377,-0.0008296119962637153
-0.08721875210764067,-0.0776014447993725,0.24085113676263015,0.07911394822354444,-0.1874155212587377,0.14316860344168386,0.02894956541250053,0.1014622054829247,0.15981699898204113,0.07734851581870424,0.22949318397875815,0.27913491722117817,0.1282960452835899,-0.07009827887721955,0.08225739842312312,0.06070054296779907,-0.01029082294055808,0.09951739493047548,0.05326985887049755,0.07513156987460164,0.05886411408001822,0.07793314901685444,0.01354114531474293,0.03952583658541149,0.06502628572828713,-0.006023067933332319,0.09254827206564485,0.06805192299247351,-0.06671448462014852,0.06050834604572431,0.039297078395503025,0.09233957561139516,0.011062581113984912,0.06626924306761461,0.09409607060467715,0.04720776212509746,-0.036229835257968586,-0.03823103918558563,0.05726549588954376,0.05123398201402001,-0.06636559545703195,0.07109988588776775,0.008383611200261492,0.040082565559462956,0.017455400248692254,0.06950423668710674,0.05592357831616316,-0.002626118248870219,-0.031158686626377212,-0.06982337925050627,0.12994462362725356,0.10367081660762784,-0.04235535704310226,0.08955280858694227,0.02429581379111427,0.11326659875289527,0.011786204328316589,0.06395576211377586,0.09913726713487638,0.03447921996650387,0.04241227164513863,-0.061252020006609856,0.08091704407598398,0.08585992646300258,-0.033741469875560745,0.07885382474330348,0.05999886944838651,0.06305159762390693,0.02854733153426461,0.06573775755222229,0.006234445447246686,-0.05880482129731509,0.0777048957443675,0.018197028170898362,0.08906813699616027,0.08671742444200016,0.07980424130512859,0.07754102812646223,0.01899924037339808,0.08906813699616027,0.018197028170898362,0.07324330374830289,0.0718053305960324,0.08253147428489985,0.07873447526554442,0.029143018991023395,0.07438333209065345,0.02687755997269232,0.08253147428489985,0.0718053305960324,0.07913333523226863,0.020871873704985156,0.07851849484388021,0.07808986131100275,0.06525588104048556,0.07472290627789156,0.014677449664429907,0.07851849484388021,0.020871873704985156,0.07861417509870092,-0.009410967114965604,-0.009231783906427938,0.07802615744743226,0.05768680405135441,0.08667357375821506,0.08357592554275539,0.03806896666172445,0.0780247864592409,0.035770714712893746,0.08667357375821506,0.05768680405135441,0.07848646553096801,0.10071606966911692,0.05765440366954878
-0.06556066836035032,-0.09995740683927086,0.24085113676263015,0.08012088568778411,-0.14549912495120557,0.12772935583332554,0.17941690517645126,0.1014622054829247,0.012115036209785521,0.08011161398670474,0.13605315001098722,0.15056670662128346,0.05620047772993139,-0.022619861039591987,0.10788420642870611,0.04997626571057469,-0.04182639454023176,0.056969248402904855,0.01717633303154514,0.09853836796503604,0.011445986000995691,0.06425443086693654,0.16491528182760096,0.2026988277448163,0.07301737850832798,0.018521611464079032,0.09254827206564485,0.06803612772320576,0.021694973668123486,0.04257550098895582,0.0891180564696737,0.09233957561139516,0.034340945589539845,0.06728155617463047,0.027357142226151338,-0.0026729600404676113,0.08070357858495289,-0.035183446527215244,0.06731898015237314,0.06345070345608131,-0.08477449677638711,0.04340916489193147,0.012221337952452595,0.047119428434852235,7.724044786839062e-05,0.07147616558904281,-0.051005630509348074,-0.0255695332297809,-0.1097684619377906,-0.08280450002743672,0.08265742320877253,0.08958461923357348,-0.02271845630303176,0.05535199093381932,0.2249493992836971,0.07204857674906306,0.032661272729123864,0.05957644119900541,0.05942560756267215,-0.01437937920865553,0.04612982753643519,-0.05459312698232276,0.04787733879147625,0.051773282518461805,-0.022399402621606238,0.06163743759870852,0.003165999618741151,0.04939182749059906,0.007986462603431048,0.06470122888760023,-0.051577334066992886,-0.02668667506248336,0.08047278916139451,0.03332615960881072,0.05704321182184911,0.05993129418671132,0.027907618189820706,0.060147237471335734,0.23329613864042656,0.05704321182184911,0.03332615960881072,0.06886292252674789,0.0515585404579968,0.0963468158633017,0.07363265459266956,0.047381452922927246,0.0679718917927179,0.19457277127094827,0.0963468158633017,0.0515585404579968,0.0839262069076894,0.03419031726739606,0.05479662524011088,0.05908946680536023,0.027800961195397027,0.06167269334241101,0.1971966000389222,0.05479662524011088,0.03419031726739606,0.07335796793216909,-0.07682326916979172,0.006821052031161848,0.06867588911688992,0.0491109704417281,0.10395905381028539,0.07462192613381143,0.053634553028279935,0.06998436757363298,0.16806497880808277,0.10395905381028539,0.0491109704417281,0.07617012086156189,0.17447514444609327,0.22798226824843115
-0.08669356131125017,-0.07157151486207297,0.033194513973459974,0.08471380718133885,-0.028006108472590177,0.04673384963589878,-0.0035934046091611977,0.0708597636237705,0.002725955514042603,0.07153902274650514,0.014736070476765286,-0.028078398079747897,0.03824924897857897,-0.037180752232221316,0.023347146532887664,0.038954343225366006,-0.005506785091828624,0.02102884221244521,0.002977416170160523,0.027427636734235736,0.003270600641985311,0.06603853301954347,-0.06706089696318851,-0.0044161814873977185,0.07368763652167444,-0.006390692594314528,0.05786701676342334,0.06567634439096977,-0.03931449924443318,0.029661696520458233,-0.03471262654716236,0.05773652657763178,0.000996220712578639,0.07146331378805353,-0.08031320901049098,-0.0022528830061872432,0.10012413748537397,-0.05432970574854498,0.07263657443492934,0.08004900386145353,-0.0592357749200778,0.040338431491857146,-0.012609679599371948,0.05088256697315602,0.02293917862673125,0.06401626884970636,-0.04971953005061114,-0.028735098642781322,-0.1584740948582045,-0.11220425065507458,0.11454971312143818,0.1267177286417669,-0.02323462092294476,0.06402252747593719,0.0026487912043155226,0.09984758146364739,0.023161944670046276,0.06306216512586878,0.06050592370598851,-0.004835997943773576,0.07802252996677467,-0.0289457075290314,0.07706163625285666,0.05891480165079632,-0.06799836346401876,0.03630889546539621,-0.02687998632925703,0.06004741444450635,0.006627059503670664,0.07051265104832652,0.030992821210266513,-0.04811645764522134,0.10550626488509056,0.05185909419208728,0.08250545203656821,0.11038276060786517,0.025939511518835993,0.07139989549568164,-0.010375613522003693,0.08250545203656821,0.05185909419208728,0.07628199550189203,0.09505135509909941,0.05495983003613443,0.042670021021638825,0.014660834475641232,0.02950257435906068,0.0008310421218693717,0.05495983003613443,0.09505135509909941,0.10736696304876285,0.050033585573310585,0.08473929317208716,0.11739184148383086,0.029378684147889713,0.06904218904809249,-0.0191059921547066,0.08473929317208716,0.050033585573310585,0.07195301525708352,-0.003614982955648861,-0.04632565948455759,0.07216810974015576,0.08819517458145143,0.049979958653569245,0.043763999746911156,0.0143585945346547,0.029485962835595608,0.0048915038305615615,0.049979958653569245,0.08819517458145143,0.07409649868528073,0.012387630261040727,-0.02354278394656061
-0.0733754873651909,-0.05953655871340998,0.04574902153855605,0.07580081686674212,-0.04640072256499076,0.03848597590258883,-0.005465980115943493,0.05894449049366921,0.011711022475377204,0.06840340989193883,0.04422014206510319,-0.022264574499281826,0.06245195317918409,-0.023612710688206143,0.03831447644268418,0.039841217125533325,-0.014229824387151806,0.02238422842429068,-0.013191435775449862,0.03499535384349213,0.007085929308983875,0.06502118968889858,-0.028783197828933647,-0.022983433446590484,0.07450052371424971,0.01173503320774901,0.057471592210574005,0.06155308664127401,0.021263682969330715,0.023695407383376697,-0.0016671620829475586,0.05734199370757955,0.021757941400526528,0.05708744674165065,-0.060721326664890614,-0.01996918977244082,0.05381179400838006,-0.034849704782963696,0.040995419926035184,0.04506610648997611,-0.05211974815259734,0.021677874288754503,-0.004180384667137472,0.032638543006674674,0.013439109436534272,0.0640875835855841,-0.061648502973778635,-0.011234580792646763,-0.14061493863488592,-0.09351998961580747,0.06423667147128939,0.08571849596233862,-0.015632537326342462,0.0472565077468582,0.008266056685333315,0.07861981651459782,0.01817772814498137,0.06690679893687808,0.05593573444897212,-0.007459710144000859,0.09259984019732004,-0.025723088692203716,0.06966607588059644,0.05059432940183703,-0.0691739598223175,0.029530010650610998,-0.016202489206980832,0.05428469903491738,0.0003398452099107857,0.07022746168828435,0.007871614812036451,-0.05089224502758991,0.07905690204187721,0.02716380927562813,0.06540881176850451,0.08980436535269934,0.03925994251044892,0.05577822937581513,0.002345599053922229,0.06540881176850451,0.02716380927562813,0.07320870706431158,0.10652583848240402,0.04670031799664378,0.01855127945508907,0.011115691851417591,0.02188359506958761,-0.0015754120166089972,0.04670031799664378,0.10652583848240402,0.08063776991602685,0.02361761864970609,0.063924794059135,0.0926829663048838,0.04695073135683643,0.049989249950278425,-0.006389751638767474,0.063924794059135,0.02361761864970609,0.07187204530802288,-0.011060903497595042,-0.046879461709178886,0.07069206633078746,0.08750681590363675,0.0473797037176969,0.02950735774622293,0.013718648308103366,0.024521346992955568,-0.010781098512114664,0.0473797037176969,0.08750681590363675,0.06986728064458216,-0.0015613900569527307,-0.016648250899042035
-0.05181935352500044,-0.04004549875861449,0.04521973502228142,0.05411952272471021,-0.0681869033715385,0.03149525819341781,0.002327814719988617,0.03964726164731663,0.0051487973460777395,0.06545412853466916,0.06073875592965581,-0.012053584793197108,0.14991424201724743,0.007903328784153875,0.09568396052513124,0.04625814196698225,0.10617238786548515,0.04322465212184486,-0.037971530619249315,0.08739501010102063,0.22128683019401094,0.0700872451272405,0.1556756851125126,0.11746985910939188,0.07375561862658202,0.03732606458604041,0.06170825740507543,0.048769111531853086,0.007177953846749642,0.023706764168033318,-0.01804100571768224,0.061569105217455636,0.06920630829055134,0.07393548664735217,-0.002656622304625951,-0.02604931632594567,0.023230656553147752,-0.023155555760168096,0.04652454269590833,0.03723691340988559,-0.08902110414217733,0.030939274053046296,-0.013066552829280624,0.03256451382748406,0.0008495943367907901,0.06535955856951245,0.04915709507627079,-0.020258176567310694,-0.07989701072606872,-0.05039076091470067,0.04898849259675652,0.052481639947126825,-0.02212554896277746,0.024853037385311593,0.002831466391019902,0.042700958143390616,0.017767264158394473,0.06108170172817086,0.07962335338941431,0.013142515119821957,0.10716195637948776,-0.02496194493128019,0.05861149618325354,0.03442530087573755,-0.059972035730141086,0.029372466712593543,-0.04708653949843004,0.04567082888014802,0.1937139956608719,0.06766839249516161,-0.056675823768513246,0.034242642418532615,0.05765398571539182,0.04625790189552555,0.04226444190352859,0.043935341301116454,0.014896810044482282,0.023255301470597855,-0.0157967934705607,0.04226444190352859,0.04625790189552555,0.0666825144666945,0.07358851083956151,0.06431242565693267,0.0441993927684454,0.022159323505925067,0.03128166235450581,-0.03146093126342049,0.06431242565693267,0.07358851083956151,0.05931013909348242,0.05199032330248645,0.040526146313458196,0.04503853841013082,0.013521408073498484,0.027043451649751537,-0.02398792835959027,0.040526146313458196,0.05199032330248645,0.0705038222817922,-0.010528288036332647,-0.04309210095047769,0.06922127160647189,0.08536752453344362,0.06322126222231114,0.04017251200143728,0.018764255503531693,0.03403781972816141,-0.03653601310539833,0.06322126222231114,0.08536752453344362,0.06867156373361395,0.08776556528479193,0.08160544026931497
-0.04858529784115372,-0.047389074617924735,0.05433430173393758,0.07068129453481249,-0.06923449421628382,0.036293419600088535,-0.002783675844687437,0.046917808463976245,0.0047451971364743445,0.066885034820997,0.04223554629799,-0.024907283917900563,0.1760213602691068,0.022113788383010383,0.08996117306484828,0.03350189007765,0.03567586004660682,0.0352856419552828,-0.010763912913085639,0.08216797868266644,0.6191682351199823,0.053908566233708016,0.1639955185189223,0.15299025329507843,0.07688898226995713,0.03783499425218906,0.06055590372279878,0.046755825443455495,0.006949161418708679,0.02299150923493524,0.014170633825291018,0.06041935009398689,0.07014991549276531,0.07406149309762185,-0.023076457968682206,-0.027122354546924462,0.03994114214275588,-0.014812002949622613,0.05655452405005664,0.04233422922084721,-0.16916855301032188,0.0359365079943754,-0.02213547387440506,0.039584926013615976,0.016296854238380204,0.0694133443761394,0.04121988943503958,-0.0332468436117299,-0.09063501500786252,-0.06936285160053601,0.07091493768548046,0.07895453281369288,-0.02326814070885361,0.028917105721600996,-0.011523766508133526,0.06181320602727312,0.02826343552248504,0.06827179551576507,0.07469849366959803,-0.0006657465227721589,0.10308057943197677,-0.02743232333388255,0.07078755530412,0.047171364457226285,-0.0659080901320648,0.029144703350488715,-0.02355879021226813,0.055158570172487584,0.0039082755642671375,0.0673546713390616,-0.005982713313655287,-0.021968682243139175,0.07083631674546198,0.04874125149349934,0.055020718368965965,0.061620452009906755,0.0184049080655777,0.03485776735745359,-0.010105632876299037,0.055020718368965965,0.04874125149349934,0.07142845008367102,0.09443033682126266,0.059485534660218276,0.03289234701444655,0.015972446896150457,0.026373167644702655,0.009760984464415593,0.059485534660218276,0.09443033682126266,0.07209599077987995,0.05392602107812412,0.05426225365542118,0.06105639906825744,0.017454546921425923,0.03420461434103768,-0.005662205017320703,0.05426225365542118,0.05392602107812412,0.07510106842201394,-0.01264089087482851,-0.0352097149603564,0.07601536794799718,0.10609082388285843,0.06205114442886436,0.032548350655141084,0.014819475641348974,0.032398129129306015,0.008451947269101806,0.06205114442886436,0.10609082388285843,0.0639409395365038,0.08778849825371084,0.08177206277915831
-0.07637658359618735,-0.08507010295294191,0.036869653135497005,0.08594701384665741,-0.026170905863693472,0.05990378853808697,-0.0211047738341052,0.08422411343831504,0.002524155409240906,0.07468944662522156,-0.01427343463485535,-0.01902591842705267,0.13433991512117727,-0.029627775307689244,0.10918915162878234,0.06272226034116646,-0.0323193740023104,0.06873756800671527,-0.004626345642092628,0.09973026782281823,0.09483625615804506,0.07238334684307957,0.040562794954430485,0.03806937084116666,0.05563230581123746,0.001413860818087528,0.07743472454826181,0.062138614711895586,0.23779278918100852,0.0397496641118877,-0.055313638172495974,0.07726010916011537,0.0026214413102926166,0.0632801754458751,0.021854956710870323,-0.005025243439273644,-0.016366679419846535,-0.03121367191592962,0.04951532207851981,0.04966336785170709,-0.07028470392467481,0.0551431761693294,-0.046121279541916485,0.03465788801058099,0.0017764392394022722,0.06970735612629834,0.01584649446364384,-0.04253483025793592,-0.03665121256167432,-0.05117201319728065,0.06827377040043046,0.05793424656970062,-0.03036492964329677,0.03489136454805077,0.012893833399723978,0.05951102509231453,0.009206138399864545,0.06660003243773968,0.055218614619454646,0.008272637931596523,0.14010053784287504,-0.052078237777211565,0.08893794525657399,0.07120010826522989,-0.04361895085734809,0.05414915603374557,-0.05158723388147156,0.06930158660453237,0.09872617987512114,0.07369949498277302,-0.0902901981711819,0.02687853372254937,0.06897384631241618,0.0518681851413496,0.05485505053182713,0.05325537200546971,0.017243270422483994,0.043385991689464214,-0.023318959375261874,0.05485505053182713,0.0518681851413496,0.0704251884700099,0.07064931795334664,0.07522161603644573,0.05997522665611976,0.02699642820746978,0.051222070932494326,-0.08074019809600584,0.07522161603644573,0.07064931795334664,0.07198509123147868,0.050075664102254155,0.05658165329053584,0.05777328952789152,0.019600089097302605,0.050168832169195446,-0.03945619016962888,0.05658165329053584,0.050075664102254155,0.07263097534452051,0.013118178507126146,-0.028417197202085683,0.06954182210139039,0.06626263766098073,0.07712763773124125,0.05904903435691458,0.02949186071044755,0.053334031006119845,-0.089344055504541,0.07712763773124125,0.06626263766098073,0.07959043158899597,0.08391854769674688,0.05539018569970271
-0.06137369790939814,-0.04023314782112046,0.025579411747386382,0.05450721532954577,-0.03839133388648055,0.030261720153022295,-0.007996745286629131,0.03983304461193628,0.004139383297264329,0.05205739244109794,0.06330446143835221,-0.017934422019901818,0.12394174073822703,0.002822588946429588,0.09890697682589196,0.04829631788753709,0.30729944935035447,0.05086886252167353,-0.07649257932056595,0.09033882158849303,0.07903021346503755,0.057575851670929025,0.13034303426154595,0.09439523403694525,0.06779850919936166,0.0430380298604571,0.05461329047203163,0.04261676818541959,0.005509542576040519,0.01975259133423753,-0.02012471444160081,0.05449013744256894,0.07979687105440739,0.06962502779258474,0.009914297245753568,-0.03168665429541153,0.027089365136699715,-0.03957918205599622,0.05930439669436438,0.05335232671360648,-0.06638747485941697,0.05884225389446601,-0.0044088212820917625,0.04150967928490939,0.008650464735453887,0.07242608611264209,-0.02915287676425924,-0.008415929948155364,-0.0801326489909519,-0.06223289825380269,0.05226813986526383,0.057909314015049666,-0.019114718765594993,0.03950992617683038,-0.015831858155932414,0.052317574691631424,0.019115938127085813,0.06522466957040052,0.0751439828061986,0.008059474059949888,0.06944474520617011,-0.03700225549574793,0.04846650293156621,0.03485364279614324,-0.03345475787424971,0.028678374218550132,-0.12890600488453732,0.0377657201393742,0.004927811193999494,0.06581869754142582,-0.04528741390146141,0.01437471655388728,0.057989756446795854,0.06787660953995986,0.04815846243006866,0.04325176875622672,0.011567953752827986,0.039342258641449336,-0.04891142289487074,0.04815846243006866,0.06787660953995986,0.06408059366488832,0.0857490310795485,0.06252355235882201,0.040466938450668566,0.018487834548085284,0.03391894607326288,-0.004149039111969019,0.06252355235882201,0.0857490310795485,0.05895157316333444,0.05717673179842545,0.05177718283057237,0.051621403812247814,0.015708265004002343,0.04503791892136719,-0.061662161238759436,0.05177718283057237,0.05717673179842545,0.07143868702145593,0.02459449704473746,-0.0249285619150008,0.06571581395412453,0.08620461867053372,0.061066061278873575,0.043209254918197854,0.01794858589261879,0.04025359091536311,-0.03760102497343612,0.061066061278873575,0.08620461867053372,0.06132702221737531,0.06536018303130602,0.024036005692084986
-0.022484465785866586,-0.030162357760637876,0.04451414009649005,0.04825943616798002,-0.08911675480988436,0.042555255388236755,0.0058202623633805285,0.02986240469233091,0.013326663888205548,0.06952187021599013,0.017986700211713853,-0.028116264109929456,0.11423804636245592,-0.0031924756730535102,0.05196114823151922,0.03842473870868698,-0.14273603677495716,0.025563652320051377,-0.0010992237769991255,0.047459836002101186,0.004904784717025071,0.06989919447024567,0.010041526855148203,-0.023252312635563942,0.08216419331183446,0.05836429502737886,0.0674249071577076,0.0299732104370307,0.005015828690798611,0.05400676761126297,0.0017264248661768395,0.06727286391867288,0.10821332062786196,0.07395800185227067,0.041650820381514915,0.012189931155088008,0.03872233444209043,-0.060306324707361525,0.044679543581758414,0.06047798859664515,-0.03282554450666374,0.03529902654822494,0.025562014121175463,0.056479978375538975,0.007800860280710796,0.07116915709381574,-0.10851331343121533,0.04255859223778895,-0.061773474117153365,-0.04148859901541938,0.04088256833448343,0.03965512736999821,-0.022426437828896497,0.04022345048823071,-0.00841828633995444,0.03563540633133639,0.0018764122826521014,0.06938314786563818,0.11662142710562906,0.05856129181022503,0.06292692297358611,-0.039735250257094415,0.055562313186677315,0.046010820658349924,-0.035714844989308756,0.037985161130867695,-0.012570900093496564,0.043294866416649626,0.005777435348835079,0.07411418747884424,-0.059858332215693894,0.0032568388181531687,0.05221440476664826,0.040932879030093225,0.042991151593633474,0.03931884393555266,0.017124222366725256,0.043862961378954055,-0.007811239150437757,0.042991151593633474,0.040932879030093225,0.06348292557263067,0.06336169390723366,0.04956344926248844,0.030095876618182374,0.01983381991582877,0.052757595859634326,0.00916707158703104,0.04956344926248844,0.06336169390723366,0.056681177295485524,0.03887176136588748,0.04489045047100832,0.04339533378482976,0.020032210426858647,0.04576907345526206,-0.00047448728736521826,0.04489045047100832,0.03887176136588748,0.07211656324281732,0.0013436602826462348,-0.021623846706075076,0.06274107313764202,0.06855074068689361,0.040058976206812064,0.027683942706233915,0.014806368629452156,0.04238574837493286,0.011978725756093218,0.040058976206812064,0.06855074068689361,0.07157835676319656,-0.005575271996694225,-0.013972480689336361
-0.02550185103325395,-0.035466748900552875,0.057245076500344334,0.051595866084103895,-0.09746381833966555,0.04335500334748239,-0.012501042929866353,0.03511404569876682,0.0008076139440117119,0.07612039839804967,0.03154083320597411,-0.02542463379856932,0.09417338450809092,-0.008837733300063716,0.05468102907786839,0.04033709997448835,-0.054259811254226284,0.03277550952053183,-0.006870383122325766,0.04994409786517306,0.002725872616972058,0.07348933384712358,0.03887416167709517,-0.004307194088709867,0.08055621987627061,0.06362385263771349,0.06698431767055975,0.02823454813158559,0.004571121411952089,0.05763499608999062,-0.043702766375089325,0.06683326796129813,0.11796507371218963,0.07022828979390504,0.028631077975798752,0.013848359023358188,0.07360007321612201,-0.04422522389296586,0.04302844461882098,0.04606152745927315,-0.0431073851692643,0.03233934317185886,0.011307594485150103,0.041419199416461425,0.01228056342622222,0.06378815614922818,-0.12225542032558004,0.08398252670844582,-0.08571578819872878,-0.04113497939676812,0.025828709658201887,0.03163105908976679,-0.014290332089040719,0.030139168096479794,0.005358475467002794,0.03458110448676773,0.055530035421513885,0.06346755496521818,0.13184011893852746,0.08271953847955345,0.03195516812108419,-0.030574822143096102,0.03798558289448991,0.038262169193602466,-0.03173213254985543,0.028569443473968704,0.023248397215772737,0.029598852942822544,0.0033984966193423387,0.07105585640552349,-0.05421521598447917,-0.02486352349809619,0.05082784268213025,0.07314200211180759,0.03452272462786087,0.023249212298695268,0.007695596565337824,0.031021812336493086,0.008703410762733281,0.03452272462786087,0.07314200211180759,0.0622526616315899,0.07652830303878488,0.05458385468364364,0.0324908410122213,0.018084801282793002,0.061719178600028735,-0.04285756392463579,0.05458385468364364,0.07652830303878488,0.05397349638950362,0.059385951726325124,0.0373491536611094,0.0263344371030186,0.010909533346715765,0.03373487085661228,-0.0018979436243288842,0.0373491536611094,0.059385951726325124,0.06852510670021995,-0.018082927074215018,0.002852026886682627,0.06202446553524353,0.07934030959279509,0.0513050844370177,0.035240467137918285,0.016384280687642423,0.0537966831904874,-0.0383661870705908,0.0513050844370177,0.07934030959279509,0.07411715227165144,0.06521780834798105,0.02472603369398635
-0.027873350993105107,-0.03758095225116296,0.046219418155750286,0.05585338706084372,-0.07426485808200368,0.04954017134090994,0.006984273375290039,0.03720722410871832,0.008480566699330356,0.07209005079563933,0.017877989204676113,-0.02640640851768305,0.11466043035439123,-0.023807341750868138,0.06285644893501786,0.047938219995794826,-0.023153754639622465,0.030912729269085087,-0.016718370027677707,0.05741129400833442,0.018531915309979566,0.06783317424274866,0.018300727113529588,-0.004393823413377027,0.08648449733387949,0.06068308699740527,0.07206828813863299,0.030470098415566235,0.0051563943393878224,0.06316667730224036,-0.03084201077500413,0.0719057740704318,0.11251259604623325,0.07387683897984525,0.044469969417593826,0.02475009391488266,0.045029243280498066,-0.05838730737685093,0.048510561571331996,0.0678586715727122,-0.036811534985242624,0.043305143706207375,-0.011033468153193095,0.054682719831671986,0.0028577448018459327,0.07008755806057118,-0.09002862016176286,0.013779049693936212,-0.08247192001073095,-0.05959720022289732,0.04959524721524051,0.05923229557124881,-0.018939351169364828,0.037590060251231606,0.022255939211078057,0.05010181208912317,0.04761392230431857,0.06180120242529467,0.08585642027000023,0.01216070012673737,0.062266249236196364,-0.05026662741511508,0.057014551009974726,0.056654922392668096,-0.028970124721140397,0.046287269639445114,0.033522390761660074,0.04547753036065325,0.11113065246750964,0.0725447594531098,-0.08079543297775454,0.011405576614984066,0.06703157198165846,0.042403497020536425,0.04655849859074083,0.040513479694199724,0.017901992240814946,0.04759323935519074,0.0019908808313972926,0.04655849859074083,0.042403497020536425,0.06821530441675677,0.08426403906385614,0.057266261931714926,0.03052681113401845,0.01723170238304849,0.06401841990555605,-0.030068626728476433,0.057266261931714926,0.08426403906385614,0.072086548956959,0.048539729578240355,0.04986059233347998,0.04518976743450202,0.01781842079947741,0.04915724614151821,-0.014266227901226548,0.04986059233347998,0.048539729578240355,0.07203993425002753,-0.03527459846683667,-0.008078805091114048,0.06822376807509735,0.08754407596489991,0.0515201047698715,0.02947594175205781,0.014911139664824791,0.0548997154451108,-0.02851680357382107,0.0515201047698715,0.08754407596489991,0.07750624671182109,0.04873043372615344,0.016799541508320828
-0.025467694421265414,-0.035279099838046904,0.034311736046606665,0.05091584230156126,-0.05872889895130229,0.0430864908045655,-0.010881378097088426,0.03492826273414717,0.005552811080486056,0.0707154633027623,0.007805429236967407,-0.031877984946029475,0.12465050763364892,-0.013684852075272785,0.045169238178872195,0.04082388544837672,-0.028945772839593778,0.022058078350037556,0.0025650430925291297,0.04125629839351309,0.0408791592869577,0.0709618052296969,-0.037703724771075565,-0.017496897672014764,0.08426258720896246,0.07222017737414653,0.07259930004547278,0.02705081428140944,0.004364590118943174,0.054119936811510894,-0.019112613411138915,0.07243558854484365,0.13390353136833835,0.06495365019259877,0.09136435930784778,0.05490954428246354,0.04838419875379076,-0.035943149188962145,0.03997303185247201,0.046063534444569135,-0.04927391122715907,0.019387300195938588,0.004111853084148187,0.03366260999641958,0.0015447280137494018,0.06936701247264826,-0.08886921767251785,0.017289615420729973,-0.0820519834841535,-0.06134473793990372,0.03953819066822844,0.054045987341914084,-0.014668657590207454,0.030864786543751414,-0.017338930938999797,0.05157092147662207,0.005746511175330165,0.06395720694276086,0.07135751169345059,0.0007198071355531804,0.061911151124052176,-0.02784182738174961,0.053122967195629506,0.05144868346351934,-0.04873365585884447,0.02703271600395218,0.024614124773895785,0.041394096762377416,0.0003398452099107857,0.07114156396887931,-0.03127780288359434,-0.05511960521195456,0.057108342685475176,0.020875232807456307,0.0452945343093934,0.053706268295549524,0.035376799760056574,0.03555706118945008,-0.0048440186862707514,0.0452945343093934,0.020875232807456307,0.06597538647442716,0.08678100783328711,0.05503111678222279,0.026416074516933057,0.016078860195387807,0.05482116230157031,-0.01419831075900048,0.05503111678222279,0.08678100783328711,0.06247465901337429,0.020661472791470525,0.046236936748843174,0.060265678856871965,0.03881833540181606,0.036137110975570354,0.00976387793489932,0.046236936748843174,0.020661472791470525,0.07215649643047176,-0.03523619716121309,-0.038838627617058204,0.06644684943096926,0.0921388739491351,0.04727968997361945,0.02402840645348108,0.013001473745762401,0.04727780390044096,-0.005390617403732711,0.04727968997361945,0.0921388739491351,0.06874021396341894,0.029135524851462997,0.009413060078087464
-0.024190187436882195,-0.022368413902866396,0.03254768851750752,0.0359520647957427,-0.08786413193115007,0.011924676478869852,-0.001619664832777926,0.022145968614054098,0.00615862491969607,0.0634618970425692,0.04879409831840322,-0.020442093054439135,0.07162016489599478,0.004204700720367737,0.01947951409253146,0.009889425565673807,0.04062800723554807,0.006656091853064655,-0.004168195025360708,0.01779203454305829,0.11772822816003645,0.07192835164096738,-0.05665980674895754,0.00046237808057637315,0.08307494418041125,0.07496311600722172,0.05608198379658775,0.032053352344906735,0.003248219126214065,0.011919005757642858,-0.00744247883050298,0.055955518862079466,0.13898921770489525,0.0711227425815127,0.034900145928109846,-0.028436392275104767,0.02927098792772304,-0.022193851879700126,0.023309277935045416,0.017398522870470723,-0.04653312398267925,0.013470040989728002,-0.03170695188141125,0.020785685088886934,0.0074146782772734465,0.07492837656877174,-0.09280080103675635,0.11491119325595549,-0.052037700965131675,-0.03492196927472531,-0.0012055778957246338,0.020165632687744194,0.0007856831618488516,0.01295410380420663,-0.003836180914996418,0.029357988896132756,0.01782590516285979,0.06892980043916916,-0.04952564524717786,-0.0174047013113829,0.0471720489102588,-0.002844273225364132,0.02141146524987626,0.011943099682201317,-0.1922735209664434,0.008171571769210207,-0.013098567374310366,0.01668408809157364,0.008496219288238606,0.07027007736691099,-0.042576294849427966,-0.03723128826885718,0.027434074681444924,0.020907057011253418,0.024058642096340368,0.025783712089292622,0.018762136017984155,0.014580785391166506,-0.02642757922367427,0.024058642096340368,0.020907057011253418,0.059669977596371625,0.07995099999306374,0.040720149326266775,0.03001080661639781,0.012913890039665385,0.011789342874194515,-0.005672461802790894,0.040720149326266775,0.07995099999306374,0.028431403390636434,0.0222184458908897,0.02198069556038414,0.023686511150257848,0.017160774439246886,0.01318688969860039,-0.025263772507018847,0.02198069556038414,0.0222184458908897,0.07213610459863243,0.013746581954616451,-0.03310965873047225,0.05631780396374983,0.08118197765154878,0.03452340083448106,0.0188348624384403,0.010774938683439459,0.008881637005428178,-0.0012644119656748895,0.03452340083448106,0.08118197765154878,0.07285343316424783,0.021027840005186753,-0.019671371685593703
-0.014221390840285193,-0.08124194934490422,0.060685017353784246,0.057187273368147586,-0.04510532400834405,0.07983142001710786,-0.019789016417792297,0.08043402934824387,0.0047451971364743445,0.05950166434165676,-0.03638398953457897,0.03909513977235962,0.06524124524250771,-0.0564135065360978,0.028519659776103348,0.027776207229155327,-0.004433469611348665,0.041132395140261103,-0.006778828044124712,0.04161532705181858,0.009264841409036889,0.07528306350080516,-0.16695878345446197,0.2218581447347702,0.09073825224859648,0.03642113343410153,0.07196662076091385,0.047701533211193636,0.008579208762697504,0.04988060206812011,-0.004882229043084596,0.07180433595276009,0.06752847418247268,0.0705633750075893,-0.03252045491231027,-0.011510693315023239,0.01740750725843514,-0.03908295987004424,0.030066441923492983,0.04022168307709158,-0.034084793125386675,0.042980428608954825,0.018000775931755506,0.036603204374062955,0.01050413430477225,0.07126952487950124,-0.11277836099726009,0.045171764253999686,-0.08717679043908365,-0.05045655088678372,0.02132762181148328,0.030981587122580655,-0.009620015383388908,0.05727548491006745,-0.014796698099872769,0.042417506556351146,0.020405971091311835,0.0781370871281074,0.060297946528364905,0.01865549055700608,0.02174623944777245,-0.013972101551083636,0.01835194615909178,0.015343890476367314,-0.033547858066376245,0.016134286099866686,-0.003973023036085907,0.014300071611020329,0.014443588372087698,0.06970347576096944,-0.08749965988167396,0.028703797312763037,0.04227753452977686,0.0450089129777011,0.033263198369279434,0.028876368328866114,0.012049514637349006,0.04476786718979774,0.0023303280297353297,0.033263198369279434,0.0450089129777011,0.06575417634894556,0.03915368737972808,0.07584249417671625,0.058739516578557825,0.04911470730420637,0.06918179899810234,-0.01082049161391059,0.07584249417671625,0.03915368737972808,0.040847124356345535,0.04746668092273061,0.02954960448347514,0.025073222593674907,0.010798711465164073,0.040191859680212896,-0.0005904722399513404,0.02954960448347514,0.04746668092273061,0.07118185234019928,-0.0009023661181019925,-0.02248850625179799,0.06241226598492736,0.04152111882135593,0.07881781470467383,0.05736679129314633,0.04809680254726283,0.07348148802284975,-0.025056264627124663,0.07881781470467383,0.04152111882135593,0.06897065610756903,0.07316268437098443,0.09435421923787844
-0.014658780476539634,-0.07543717778571808,0.08211889332193935,0.06819838588841634,-0.06573313073901399,0.05871166053469495,-0.02135789181193997,0.07468698401370556,0.002524155409240906,0.06134530615562271,-0.00026718532072220316,-0.003761068384575369,0.04525963618962281,-0.05028155165120606,0.036537886027183636,0.028880417134705242,-0.006372608471328113,0.04190062611344949,-0.0024733004014635867,0.03709188357754208,0.004360056692011818,0.08322298525899724,-0.022089144580885983,0.11201966500771783,0.09074991011395106,0.04801486163668409,0.09254827206564485,0.057543016765268865,0.008368781233713011,0.056780511612424374,-0.03262867394347678,0.09233957561139516,0.08902442177628528,0.06560152228833084,0.024807771630702972,-0.001559307077191107,0.009501133945165505,-0.05742999450207435,0.030095820944208873,0.055277669679585556,-0.023218464339578474,0.05753004110717895,-0.011810157432061513,0.05378614703058722,0.007955341176447576,0.06981815937701707,-0.12739655101636224,0.05714098926632847,-0.06627495828600531,-0.0511021116886004,0.08808252296027017,0.04170463345434044,-0.0392285082976256,0.06991515393496966,0.01408122111619951,0.07677738029317857,0.007212451789838584,0.06803800556698636,0.14368092573592617,0.24641581205824026,0.011545189172646199,-0.013660522434932454,0.015556000517216539,0.01364144693174407,-0.029085400213122743,0.02096142840289701,-0.00195547262500761,0.012359031343929348,0.0025488724645067536,0.06876584535798407,-0.04618157674941296,-0.0017344444550934876,0.040752965126776786,0.036889631369231554,0.06478213591615294,0.04571371971268804,0.02863221981853181,0.0651156357475356,-0.007491794653482685,0.06478213591615294,0.036889631369231554,0.06743989908173827,0.051301710651080655,0.08080511581660373,0.06555115074707688,0.039937293731412714,0.06119262369610585,-0.028842674411449498,0.08080511581660373,0.051301710651080655,0.038436442016797974,0.03322246975771004,0.05721835110442574,0.03740339036001331,0.02987531915717479,0.05364812215672142,0.013422696327193732,0.05721835110442574,0.03322246975771004,0.06291959080454733,0.12729107414821164,0.22829388507073034,0.06280780205695592,0.05232927965966685,0.0711557951566064,0.06030578025660927,0.03445294757389591,0.05092651046614071,-0.011646165101114023,0.0711557951566064,0.05232927965966685,0.07789285365757627,0.07302330260097883,0.045262829163780875
-0.05382841295183205,-0.04002049254820954,0.0629195819293191,0.03923085539765822,-0.09493581012746093,0.07763001603594828,-0.03957782553175547,0.039622504114074024,0.019182175125894152,0.07845749953936174,0.07336618218318577,0.03615565107038887,0.07308641838332154,-0.05950862681074479,0.05364339672449155,0.04617907163984235,-0.007905308668652326,0.07217072355803306,-0.01703918802710921,0.048996353964243115,0.005996473258957369,0.07417548096161874,-0.005893486365116363,0.025615546198488673,0.07746947020095579,0.05564973321911169,0.0625556089541947,0.03581046623569897,0.0048805947874120984,0.036963376657958576,-0.019291377279893288,0.062414545987909256,0.10318024780166977,0.0704267140538186,0.02711065088685659,-0.013441430920461758,-0.017666636346080913,-0.04468192357609907,0.05034380923114138,0.043178432023768865,-0.04992065606378588,0.06876432888916385,-0.129180696280633,0.04184692218604898,0.008032571506363667,0.06490127233297294,0.009467094998316624,-0.008578613118614638,0.006335032077384645,-0.0565955474248963,0.11324499268090867,0.0935154350330884,-0.04553943500181694,0.04983789544926986,-0.02638135766637788,0.09871031820105895,0.018822748467872772,0.06886603750369327,0.047266864590407576,-0.019982107848303003,0.028164454032286707,-0.06263632141673753,0.07011053334772696,0.05978963449256258,-0.02858916234939867,0.0700196682298448,-0.05168034852750678,0.0566687155154707,0.008496219288238606,0.06824231810189642,0.008041220051384858,-0.020371736225556467,0.06594574207752094,0.0443450223676043,0.07288662584253554,0.06449606154429983,0.02679828735000971,0.06038716153785304,-0.09746194285996843,0.07288662584253554,0.0443450223676043,0.06254650828909362,0.06158749464437198,0.047870847537968365,0.04177560802346872,0.019708347052034853,0.04398197826993735,-0.0340036413223147,0.047870847537968365,0.06158749464437198,0.06457873345793032,0.04685651537945928,0.057168000041963214,0.05529176058479006,0.02116372653742348,0.05747374883787302,-0.09545614362850159,0.057168000041963214,0.04685651537945928,0.06979481706217526,-0.005666898630928469,-0.021848031334936964,0.06310873056466709,0.06349083960664549,0.049099866380527254,0.04226975400922888,0.01959431581428526,0.046634409714488644,-0.049180814238904386,0.049099866380527254,0.06349083960664549,0.07142773850072913,0.0006675074045754136,-0.01314438915508317
-0.038433502988371664,-0.027097354750060997,0.031959632531393986,0.03613886515391658,-0.07121992992611317,0.025504835826435392,-0.000253117977834726,0.026827881960009743,0.0047451971364743445,0.05898111826350047,0.0766514795091443,-0.005791572168389045,0.0844510690854517,0.000642418054841333,0.04213490572316791,0.02400370793035311,0.575183977174594,0.01564600034887327,-0.0005954832340322964,0.03848482536751433,0.017987187284966316,0.07067632605347221,0.04742944789878997,0.0002587337425364721,0.08853877152424788,0.06625363144288078,0.0741018670707528,0.038316596448542246,0.004856115922616396,0.02090692273927313,-0.04346473972310567,0.07393476727984608,0.12284095025435346,0.06502590624530273,0.059464786252766966,-0.00043059147493576625,-0.028411667705047466,-0.04243794651271971,0.017650887627968164,0.03393871519693367,-0.018428002461727096,0.015549058476249246,-0.03871994339194674,0.0397453221195571,0.0019309100171867521,0.08246942688155663,-0.09352361334621026,0.04436870852576358,-0.11974097054214818,-0.056866929847770135,0.04449137016090517,0.046551204329414946,-0.01780602150635443,0.0209939564851443,-0.0003196810781812705,0.04780654498302568,0.05236359017463576,0.07914243829132095,0.14603090906695232,0.0996828845545227,0.09556330529968768,-0.006957118608136518,0.0641517063189408,0.03572588506095674,-0.2355175141882963,0.02448500780188011,0.0058043400889520435,0.049987831610737395,0.13984791773678826,0.0655760109992136,0.042416415306107284,-0.02920722295859533,0.06453777410471533,0.10004884543531058,0.04255447207337198,0.033164885134287926,0.0069348520147057046,0.019066815474361006,-0.011185772190332028,0.04255447207337198,0.10004884543531058,0.0654572507293783,0.07738643172236367,0.05719173641455093,0.0375161967578261,0.0187387269465633,0.02399571186254595,-0.038021230106265944,0.05719173641455093,0.07738643172236367,0.061979940876342475,0.1115761580327563,0.03867290035135167,0.029375003464544837,0.006012352998230729,0.01796438869086785,-0.014266226519943585,0.03867290035135167,0.1115761580327563,0.07460339890091626,0.010553450465294828,-0.04334409160282145,0.06309540647978695,0.08250269062061692,0.05374531328596047,0.031482419990430666,0.016505677303771366,0.023166330002105544,-0.024889848004284308,0.05374531328596047,0.08250269062061692,0.06951192250333207,0.10182228312303136,0.08633258622170045
-0.032458340563192044,-0.041108877607637984,0.0478659267451716,0.05970221649733366,-0.07031006739783627,0.032976591671235775,-0.009464249107342856,0.040700065601928063,0.0008076139440117119,0.07288485171376725,0.018281547379972604,-0.025914401601925565,0.048813546559179376,-0.0282067532680489,0.04458753812003442,0.047393158109152754,-0.013862542320063507,0.025872929832965783,0.008015759664155566,0.04072499009232149,0.005996473258957369,0.07262562655564125,0.027283912572685528,-0.01706906917590026,0.10538047428054337,0.05819461319740441,0.07726526349354744,0.04376108222097663,0.005764625339023923,0.024521569430635937,-0.00392963467561899,0.07709103024026386,0.10789871331078336,0.06661644380467752,-0.028125387349771325,-0.007603636032083604,-0.058038222796542166,-0.05282347459265744,0.025389309214922468,0.04950661106871503,-0.02129560549906746,0.025255359561861927,0.004248913257611862,0.04947190393696693,0.0010040752325275713,0.0702589798812317,-0.05453825526948308,-0.010865256424529656,-0.14104321250997018,-0.08818691565716366,0.0768912721472499,0.10207541572967312,-0.019843751872826967,0.030928882897356756,-0.00039579789969714185,0.0741364403101111,0.027032043562724338,0.056330760409472165,0.0841430078894949,0.002275145661337055,0.10139963193482743,-0.011661964369905969,0.06994515380932904,0.04327602098359012,-0.15318996724815023,0.040520266209435225,0.02632128625462045,0.05450216013312109,0.0518269844045017,0.07444390966505887,0.001516599734729372,-0.03900078553866709,0.09557893821513425,0.19984648613620842,0.05967737392032468,0.029676087269265322,0.004868747583818005,0.020977613438035003,-0.0020852871334300924,0.05967737392032468,0.19984648613620842,0.07849184202093631,0.10431553114872841,0.05888750473831491,0.037630633359014794,0.014313498628415319,0.02862604497163388,-0.004361646828084627,0.05888750473831491,0.10431553114872841,0.08817195555357377,0.20292216576690686,0.054835606934325196,0.02700355132080008,0.004687510956339603,0.024393954504259675,0.0031843297236460923,0.054835606934325196,0.20292216576690686,0.06633334678221244,0.07294951408099744,0.013611915653458243,0.07375041189811372,0.10173787341283441,0.05443039616777545,0.03556270153281028,0.013555629909464592,0.030066655253047685,0.012777689100147482,0.05443039616777545,0.10173787341283441,0.06830109481392706,0.04405689126969304,-0.00408587109708524
-0.07185533438174058,-0.0908498683017231,0.07717936755367541,0.1062197108676508,-0.05129837112502113,0.07027337670965966,-0.005415397981143648,0.08994640123961074,0.0030286556712451496,0.0793954250470531,0.007979692435242233,-0.021172894646015225,0.08815674538565588,-0.035681829927025566,0.11983291680368359,0.09390762206201053,-0.029451776938195832,0.06329677557469783,0.0043057152555256144,0.10945198042614497,0.026162572643976697,0.06603942161519817,0.0686315423336848,0.0047821821415701665,0.09839105992861752,-0.13344057086250846,0.09254827206564485,0.09614598266319418,-0.003011272137155597,0.053251889088268944,0.03602250477236819,0.09233957561139516,0.0015204230750284038,0.08201065682906479,-0.13983733739435433,0.0871901616729346,-0.06682312575403938,-0.13407650949393507,0.07333579405034682,0.12128860486144605,-0.02423423841736291,0.06391820667794124,-0.014848356031912471,0.12556955499496417,0.03359778370928798,0.06273483323793247,-0.061609498881927474,-0.004732006917798974,-0.16674930457012382,-0.11877910346896309,0.12043483586013724,0.14591074244250832,-0.023076130016828355,0.05097651178786676,0.01992682908494378,0.10497736534580228,0.026856128230885158,0.06028167875673591,0.08284005466316992,0.0036511917207320524,0.14058563203158803,-0.053400224063826864,0.13856727266551871,0.09442125589784854,-0.06627687055181647,0.09685703057146755,0.012074269672647202,0.10797339447724062,0.059813447007932743,0.0772116334694909,0.016090305130054796,-0.026415139812723663,0.14127948777274843,0.16694539321215945,0.09238965786105963,0.058964000290715135,0.00902304226281543,0.0516758156865922,0.013756551542738686,0.09238965786105963,0.16694539321215945,0.09748595622766999,0.12514554943020945,0.08302724802426842,0.05936170732193123,0.016821970079905733,0.055656813638796813,0.0117592736471169,0.08302724802426842,0.12514554943020945,0.13553181641181064,0.17127771181841978,0.0933801932603338,0.07652780459236391,0.009457210288203743,0.05958228853371952,-0.0009489745747304108,0.0933801932603338,0.17127771181841978,0.07159326695030932,-0.003955376812969319,-0.032056498746693154,0.09771659130190444,0.10813723178744872,0.08505717305063688,0.06980969449224086,0.01992950721045566,0.06522681040231365,0.0013311966873720711,0.08505717305063688,0.10813723178744872,0.07520512537390604,0.057463023813964245,0.013298636318327072
-0.04513968122259211,-0.07097100711671318,0.08870480725038316,0.09793595369989715,-0.07547321497038553,0.04888203458818311,0.024040403387026434,0.07026522769739754,0.008985480486139522,0.07508517434295597,0.010025061488987592,-0.027033816660235598,0.1050097253198653,-0.02158818085942666,0.0735474172697916,0.05161723958352404,-0.029876785536643368,0.04143436945653739,-0.013924251626782617,0.06717612063632333,0.05395932936299315,0.07983361225914647,0.07580291055242128,0.029149837758705326,0.07878915892712092,-0.09130735633021551,0.06942461238910351,0.09159821558223157,-0.003301241358496177,0.04392110846014331,-0.04489387515407109,0.06926805981259525,0.0013632267910000434,0.0661067906174671,-0.0972231636537157,0.02295212662066138,0.10389934430560963,-0.03286920877064529,0.06186036687827231,0.058003845636962564,-0.08338526516171982,0.030849309806708018,0.0031295750413416097,0.04329871194538144,0.01034966352698777,0.0687792726818378,-0.05375393515799205,-0.0191209995294074,-0.09868007147242623,-0.07729050499219647,0.03765050963294493,0.06730374816281368,-0.011086529306829768,0.05100069918826251,0.02052052593448945,0.06497611201381043,0.009557969063542907,0.0717639340359747,0.030818652206437102,-0.027062847613894072,0.09263360559296437,-0.04468490863970268,0.059836337225881574,0.04177488676117523,-0.03420176595691681,0.04430311813551156,0.019803041460500607,0.04662524071581159,0.01818193020134082,0.06286910294522151,-0.1020702683509572,0.10610072196140999,0.07345286091189016,0.11472900145439933,0.0497922971746428,0.04179906707496982,0.007076084677912013,0.04210208135953751,0.020160086580482933,0.0497922971746428,0.11472900145439933,0.08006107077041123,0.09642320256512747,0.05516600849719586,0.03963935486914145,0.014506466263815663,0.04207436827021983,0.0006909817109356047,0.05516600849719586,0.09642320256512747,0.07681086962224506,0.11172343770752359,0.053076566467269055,0.04517842053391535,0.008240767475360733,0.04617689295172718,0.02890150008912092,0.053076566467269055,0.11172343770752359,0.0743078079916271,-0.006997712576762567,-0.03407988906083184,0.07824512681876168,0.09673382432625889,0.055720497682869935,0.044447541250772674,0.014594777975549054,0.05058840480715396,-0.005490385600226638,0.055720497682869935,0.09673382432625889,0.07179479302897723,0.009105642614818875,-0.020361912659788716
-0.04153857455216974,-0.09106257481686846,0.17996765201889814,0.15378100988115348,-0.11933866809957429,0.12667445145810083,0.2306358773464616,0.09015699247012308,0.0017161279404242725,0.07320172315191806,0.012533665158350471,-0.02752347322637259,0.10457012785625823,-0.1422016324503675,0.10076213184581871,0.09333474760435126,-0.006214057339536895,0.09577260663480719,0.10292141602343186,0.10489983348115203,0.01744022676804727,0.07751983030942693,-0.025668999055233562,0.04980044887363049,0.06897147821607603,-0.23164754945318716,0.09254827206564485,0.1496867514346588,-0.0017346433146084815,0.10571781451154094,0.2988212440252488,0.09234239205435282,0.020027923280126973,0.07581753804410594,-0.08627302040642054,0.016423180193733164,0.13229846717976698,-0.0721190395128153,0.09119821016563193,0.08095550224294307,-0.05602765600694235,0.06207323651402619,0.11332722632495713,0.06754319404994728,0.009422828742328589,0.06352677655206201,-0.08337856649647413,0.041042671838954235,-0.07160359050188098,-0.07932176028052111,0.03994665967759384,0.0751153346036024,-0.011461435676037522,0.0864247882496273,0.18331465455358303,0.06668373536490836,0.01700496950812921,0.07386732727685763,-0.007618510940102385,-0.03363853522616966,0.07307282295013691,-0.05591511326893806,0.0855528354746088,0.0743067610894347,-0.039079554386043255,0.07433096731891516,-0.0017381983406891263,0.06666386568525612,0.016312748156655642,0.07162919491693492,-0.031835111088541604,-0.017934227340646525,0.08087700352294568,0.0826199510233597,0.06836771219746492,0.06488631914518662,0.013491809056208748,0.07665206037317804,0.10096376641412685,0.06836771219746492,0.0826199510233597,0.10060865333468079,0.08165063055333945,0.08794525832852723,0.08589624956915497,0.027310176583165296,0.08470658481798493,0.03254136013588184,0.08794525832852723,0.08165063055333945,0.08347623967216841,0.08862130274296777,0.07339892389829615,0.07529793445839103,0.014366821397446324,0.08010948074057969,0.14872516660346718,0.07339892389829615,0.08862130274296777,0.06994226300867705,0.052072277341796425,-0.012699494594347858,0.10240500277580573,0.0846606501196638,0.09458934515460841,0.09215807651272365,0.02830880150595613,0.09509385773812182,0.06379699132061932,0.09458934515460841,0.0846606501196638,0.0657579174567228,0.0073532376826397905,-0.017811479435279554
-0.035457895800201,-0.05120472512075996,0.11169691717395974,0.09317487553233962,-0.13172184633530068,0.05007428346150215,-0.006680573262654134,0.05069551378742612,0.0008076139440117119,0.06889577073522272,0.0414855136607852,-0.02149219245458376,0.09302219326887592,-0.01921329917102538,0.09118748926328153,0.06038345371808488,-0.04162131562533917,0.047795730814381474,-0.09715006906523957,0.08328806104507001,0.004360056692011818,0.07135753438647204,0.10825467906901991,0.04726603337871538,0.08133137826889066,0.0034498111302315895,0.0746893814210132,0.07537854635881522,0.09400114115884409,0.046471944273317405,0.017445451328191357,0.07452095678460711,0.006396299617192232,0.07394415156314178,-0.012845466459716515,-0.021174949215546086,0.02911221753855356,-0.01980496069845006,0.05369301220464927,0.03582307493364988,-0.12011848789935246,0.04096185563033056,-0.00995982264644038,0.03758203169896701,0.011276498311646949,0.06995185677198458,0.028211938616388904,-0.017475147149230333,-0.04860163602466876,-0.07636533761700601,0.046402845739427497,0.06584504365732655,-0.013829269313228323,0.06739544412337051,0.009453446396014148,0.06419834792742014,0.004046014224517243,0.07243768708904834,0.01679110914866697,-0.02555097030367506,0.09504585260374385,-0.025322486804838423,0.06626029391021473,0.043737848819620596,-0.06683306960024442,0.04379537725804588,-0.02408645342694025,0.0516308700815313,0.03585408145775684,0.0685889621829778,-0.011535334446566884,-0.03111821138447105,0.05760607908306057,0.023499877849149645,0.0498718898339177,0.048736923502969494,0.034601449541059405,0.05347773688885784,0.00743025119729538,0.0498718898339177,0.023499877849149645,0.07520574054199168,0.08199164197136054,0.06626271559036225,0.06327969752876902,0.020491382909554608,0.0496736415999477,-0.014840720535269821,0.06626271559036225,0.08199164197136054,0.05757440749377477,0.026384404926098014,0.04553364534032094,0.04915609133858014,0.029936032865252857,0.05252993655601772,-0.011630190178430207,0.04553364534032094,0.026384404926098014,0.0735429289112461,0.00014568073286813895,-0.03017774165110529,0.07342160929309004,0.06722995152138114,0.06327127933536401,0.0658858478725352,0.02384540381060282,0.052931282184963825,-0.02981474419569488,0.06327127933536401,0.06722995152138114,0.07299486891598961,0.027493753526687766,-0.014638429976195747
-0.05451100020592422,-0.08231783129913019,0.06239029541304448,0.0688705637833964,-0.04576671947366506,0.10046725257263504,-0.02419214979142854,0.0814992120694766,0.018576361286684134,0.08833012158556186,-0.00871424445481731,0.013893480916865607,0.13701320539363335,-0.02096521793743642,0.08870336662742778,0.0482287724415519,-0.03710421201937858,0.089875097222787,-0.030093103572394166,0.08101913403095888,0.0534146013379799,0.07533562778033431,0.08408932496040779,0.05705036632044006,0.07369155357609583,-0.08519950539378333,0.08935382475051998,0.06952709566274369,-0.0045535033010754115,0.08111988113378923,0.02578126174293066,0.08915233177844314,0.014418034581120339,0.06073326486256552,-0.03517991079797185,0.035794716062179564,0.002454080495083907,-0.05086054432890273,0.042376231590494765,0.04757032832760939,-0.036915385001265955,0.06543424527046846,0.04143833791289734,0.04763351866995656,0.002548793128324672,0.07162186945139384,-0.07233050709552241,0.026794113779490526,-0.009985672784383974,-0.0644615229197237,0.12994462362725356,0.08968268383045702,-0.04587844072182538,0.06558200252187295,0.0007915938051890062,0.11326659875289527,0.004280562879264963,0.07885676910694957,0.10254120269679196,0.05388818670643522,0.02409376992327565,-0.05483348823136158,0.058508133887127105,0.054860719941312336,-0.0272530288616231,0.06389886642883547,-0.05416349249946993,0.04960928858880277,0.0039082755642671375,0.06981289987015936,-0.027635295993354413,-0.02372775584078872,0.05754547697781703,0.03069568041358861,0.08916213456155866,0.08472555164906079,0.04735951700239881,0.0830507619434402,0.0525472689959542,0.08916213456155866,0.03069568041358861,0.0686495371467878,0.05377937606392278,0.07947406006638687,0.07023805101336221,0.03746979035230193,0.08586367301429894,0.015080198173476026,0.07947406006638687,0.05377937606392278,0.05757708917945567,0.03077128554065646,0.07658241339329364,0.07588198453271197,0.04317104269484473,0.07526917179758649,0.049905438630722415,0.07658241339329364,0.03077128554065646,0.06080630092090785,0.06945741816027756,0.02118742813915687,0.07161439263236094,0.04766003774934963,0.07509242050945138,0.06522603675780017,0.03992110786756003,0.0776774985329006,0.024690175315946545,0.07509242050945138,0.04766003774934963,0.06629638873706627,0.05230773530021759,0.0162857393828663
-0.035611840681938775,-0.03035000682314385,0.04704267245046094,0.05051633028667067,-0.09359655294095741,0.0342012941199648,-0.011741688996362033,0.030048187656950564,0.006764025234101163,0.05438719167878709,0.050195885040327855,-0.023083285943259632,0.1476361519407475,0.002822588946429588,0.09536950891577613,0.05842114207599649,0.29630869848768554,0.040627435499539226,-0.045025399123706164,0.08710779893809376,0.07903021346503755,0.05764402922214095,0.09154761235476154,0.022794315854465196,0.08955665900636782,0.03715638275606595,0.07920846628152275,0.06024121422927292,0.009255667793286662,0.0310288030803141,-0.03554620758863539,0.07902985110383705,0.06889170097347273,0.07235251782854693,0.017732222481912554,-0.01476556140503555,0.07187006397765533,-0.022571507132461834,0.04846355498424075,0.04317948337368643,-0.09513071966451009,0.023573449508116767,-0.006830244612583914,0.03392171131543734,0.004865885148948775,0.06817691276756603,-0.01100867744599481,-0.03958071046409103,-0.13280464306463424,-0.0725742089245778,0.037079446829319185,0.046283784234938376,-0.01162791453253794,0.03108670440762372,-0.007093890737796678,0.06101124489836301,0.11874161994236178,0.07729656151161153,0.11722656107835891,0.07659678205531885,0.1147008965491119,-0.03219058264176083,0.10073673253819651,0.061725321773685664,-0.07992882465236803,0.05754670042383407,-0.028649225596052482,0.07849535284533021,0.01053531280782056,0.07103030660915914,0.02829973505870809,-0.018123935870355178,0.07671461009847833,0.08208807312711572,0.05646644107144495,0.044704631178673855,0.011215391203942797,0.03765766204352953,-0.020328613863393363,0.05646644107144495,0.08208807312711572,0.07255559281251157,0.06570052050112007,0.06957200470581892,0.0650821660250698,0.026849569686035264,0.03246811324814813,-0.05709752239243306,0.06957200470581892,0.06570052050112007,0.07666616951206327,0.08457106551941868,0.05069219776734528,0.04095887970776898,0.010397488487119756,0.03236677410743411,-0.026676688273376867,0.05069219776734528,0.08457106551941868,0.07016478461598842,-0.012117091403455734,-0.016331822716408644,0.07244123171624889,0.07242007232493956,0.0628512338994557,0.05743287411526479,0.021989518387093784,0.030999013935114676,-0.044256190638195324,0.0628512338994557,0.07242007232493956,0.07070328020552338,0.036725403498523254,-0.002174276371611053
-0.0723727596542293,-0.06102529935048976,0.04804235558392981,0.050981638404936934,-0.047538014273714214,0.027898084555791118,0.01599307596559617,0.06041842617665524,0.02271574458394847,0.07098959285638051,0.08461470612843218,0.020101862569079393,0.09007113562611414,-0.004379956384329664,0.05059335134790202,0.03388331673133844,-0.10129923219382263,0.027554446327203545,-0.012092399611315221,0.04621052920288615,0.0125354420510222,0.06854568627109489,0.030913288132429353,-0.014913605568229026,0.05963728768125132,0.008539686910591746,0.0612789591515022,0.07034093749298022,0.03115580764298526,0.021882475176701614,-0.010479269681419667,0.061140775031911516,0.015833445384441272,0.07102766228387364,0.02469919166702177,-0.03058044964307449,0.05849179653188561,-0.04070336580289858,0.057876578442813555,0.05293821082836138,-0.06299971694104516,0.03051405255735294,-0.02693263680341625,0.04051028832905051,0.0009268347846591808,0.06766164656374957,-0.041557660717477296,-0.006297614271360693,-0.10488477838023816,-0.06177237060383244,0.023473074294473588,0.043171870988692684,-0.008648217433405317,0.02209810582768561,-0.018465427591309053,0.05193042110565156,0.017943179490233652,0.08213755088689192,0.07332331014959573,0.01383977679017673,0.10811779481209582,-0.013914236633174816,0.08400240374080005,0.05489455046556831,-0.1541972870183438,0.03621436903182605,-0.038830104495904565,0.06545574941086962,0.004587965984088709,0.07384790685364016,0.012357605773766059,-0.048999842550248786,0.06668755872067988,0.036759333605437254,0.05100642111406135,0.05200517924716494,0.02262357817560882,0.026825339298544755,-0.008153015504231764,0.05100642111406135,0.036759333605437254,0.06296161021704903,0.07761960441211406,0.05154389528506081,0.04309259450827221,0.016837493197234387,0.025921574355829213,0.000294037334689616,0.05154389528506081,0.07761960441211406,0.06954837407207547,0.03714646588189724,0.04791963814451987,0.0531425510999093,0.02237716986596637,0.026228255696147958,-0.014118610186559497,0.04791963814451987,0.03714646588189724,0.06755318235408089,-0.050946963265433395,-0.024631035569117644,0.06130484801109119,0.07770322898698943,0.05122508163456704,0.04296858540579435,0.01670338365153367,0.027984344387683102,-0.012245455756829676,0.05122508163456704,0.07770322898698943,0.06543151204297264,0.04587861854505526,-0.007996080834916408
-0.0019422621400292416,-0.028323325208951082,0.15118337729742748,0.03957110593713356,-0.3223194147012176,0.09684636425532331,0.1194424556978,0.06368829767273135,0.0011107276260191798,0.06730805776421582,0.09655914367861099,0.13990958296219408,0.05098852002275482,-0.055089760160712944,0.03406954070943188,0.03133145753140311,-0.0054234780682507295,0.07731444015932419,0.10388330718313056,0.04063882086158468,0.0250708841020444,0.07762176007110667,-0.11897656318950753,0.11679774036699048,0.08045789116850117,0.0008200323250642826,0.09254827206564485,0.04379818264967916,0.4900122357651077,0.10414192853089514,0.07424773159464752,0.09233957561139516,0.0015204230750284038,0.07518687712126988,0.06676747288896168,0.09756786817538088,0.012324110579923412,-0.017055979437735937,0.061819236403215884,0.02650855921468315,-0.1605879836662168,0.054940757052414115,0.1892365883871596,0.043269922969797946,0.002394322350540192,0.07325498691078594,0.10560973573443588,0.11178930334784914,-0.019310724186389645,-0.062261681164594226,0.12863990318672405,0.05810712645741492,-0.04702250448082307,0.08221317807794412,0.05745138111710751,0.11212933549030683,0.0018764122826521014,0.07289150747444458,0.16696000990550583,0.22464873388194997,0.013305766598230944,-0.03693103762863557,0.025215191924940355,0.03112954800355798,-0.017438742791783722,0.05701465253688559,-0.04125116254951353,0.033412474068265606,0.05896382285309717,0.06074951353465782,-0.07633316290527795,-0.008242397571317806,0.033098868554065485,0.018722938806501013,0.08325431723240728,0.06287691550802467,0.07249980154359016,0.0729737328296171,0.07128191710324348,0.08325431723240728,0.018722938806501013,0.057552033641019566,0.0548478384614155,0.06605830018841437,0.04671998960486632,0.030537923278741327,0.10576208755716403,0.06041292126559432,0.06605830018841437,0.0548478384614155,0.03253798281797468,0.02185024325863949,0.06413756810278136,0.054361177341856554,0.05091729721652603,0.06448584971349398,0.012705693038918437,0.06413756810278136,0.02185024325863949,0.06250028504446552,0.17262932621939217,0.21098210821191907,0.051733905574774766,0.04779018127621564,0.05507043906940892,0.04143223147629882,0.029197167729846662,0.08916883503040646,0.055136921051454006,0.05507043906940892,0.04779018127621564,0.0715332164501908,0.09891935410467846,0.08137272591428427
-0.013358833028221898,-0.022881348669574433,0.03207717147107181,0.028157310331696887,-0.08465275731601718,0.047250205964208945,0.048940910369497354,0.022653802441427874,0.004139383297264329,0.06739299268726409,0.0453378679098371,-0.014263748959760732,0.04389363138075798,-0.02176335678923756,0.03122382770156727,0.023154534990302005,-0.012581799230883354,0.0574717736447474,-0.11780755880991318,0.028518956807335356,0.006541201283970622,0.06737162545441365,-0.018322097307986628,0.03338437013324123,0.08150967932072502,0.06283208131368248,0.07100631060050083,0.0304104612354449,0.004906650046158522,0.06323911968208283,-0.16588116397472613,0.07084619129280413,0.116497049398504,0.08057779007538637,0.05516382586317058,0.028213321945290134,0.01007153131867214,-0.013336511134638972,0.025636092834990135,0.019585761072952984,-0.08516784850839407,0.04392013360739104,-0.1058345137334967,0.017943795924320202,0.0008495943367907901,0.07289138583081711,0.005045212664902301,-0.011891969567256412,-0.02375494424685518,-0.053593894626895275,0.021577461917946756,0.030636009729759495,-0.009162963062572426,0.05251663675505924,-0.07381604107000869,0.04505498962498806,0.0008209279731738004,0.07359868691831876,-0.07640325787393228,0.028375591372024698,0.015266403018050318,-0.021494513473613697,0.0383731908279421,0.021762218852309747,-0.04559788490645512,0.03995850999120671,-0.0041903013865461,0.029900882011419168,0.0003398452099107857,0.06998438165957008,0.030552497776215114,0.05467507537349455,0.02040021579058455,0.004440595840340975,0.034716708683719705,0.03810811988633877,0.1274680580643216,0.05045794979276946,0.012952324107081636,0.034716708683719705,0.004440595840340975,0.056541202971600056,0.061985123745015296,0.051836850679162896,0.03473647056545566,0.021204242289476215,0.07015917075953938,-0.12497913576205476,0.051836850679162896,0.061985123745015296,0.02050094041038266,0.004492081760382162,0.030496530044612065,0.03691200430404419,0.11776382547924903,0.042507405068736626,0.02953415118689084,0.030496530044612065,0.004492081760382162,0.06510383425442981,0.07725683381290911,0.004449568083164547,0.050313899463243314,0.051566553252214445,0.04377933182307833,0.03305154385583871,0.021511063816749203,0.06472500969395922,-0.05194270321944264,0.04377933182307833,0.051566553252214445,0.07488604133435035,0.027868112693318955,0.004990207686388697
0.0034949409545680407,-0.041734391563402716,0.24085113676263015,0.06384390747651782,-0.3484827424741729,0.1310817195207277,0.004656251351469732,0.1014622054829247,0.0006058138392100143,0.06965824680622283,0.11194453978763992,0.14571294928764247,0.06813218182969631,-0.03659669957593328,0.10711382252481193,0.044914737831447664,-0.025667648787702967,0.10026149962533906,0.1246781295451046,0.09783472120237081,0.03215681341102827,0.08392031225724006,0.17691685799197043,0.28819772563395085,0.07385580308808365,-0.11217602076535424,0.09254827206564485,0.08090625531734989,-0.003582101328455335,0.16923367817630594,0.048168448777204415,0.09233957561139516,0.03145729572351139,0.08362011224878627,-0.033045944180085766,0.07908853962648545,-0.012581279484782383,-0.0743542334142798,0.07520429684290691,0.05137767380227404,-0.04481289768934197,0.06252727458814403,0.04813151636698786,0.0696365682330442,0.0030894560274988036,0.08371416019271956,-0.031046816297275848,0.1403249500698277,0.027232476342904644,-0.045859499076233975,0.12994462362725356,0.07399747721657016,-0.06448814787956893,0.08351143046701943,-0.041223725061477964,0.11326659875289527,0.007447008126143086,0.08621779959544222,0.11713085167602047,0.04907042269828643,0.005494734511695365,-0.04257507211065855,0.01611415637468174,0.028316500809790205,-0.009667108335595196,0.03986038306954771,-0.005587061738491877,0.038518779438488075,0.013254119007341327,0.06858591274470899,-0.14919939166941765,0.1264836422424024,0.03842910836752377,0.02650028851961633,0.08584529928486637,0.09106240071040086,0.05281654505893296,0.08152604902307245,0.005043591316880136,0.08584529928486637,0.02650028851961633,0.05968522187504663,0.057181520273428856,0.09268218984037635,0.08274097433408223,0.041097197840442495,0.15467116888050692,0.05158686070711353,0.09268218984037635,0.057181520273428856,0.03757690068058981,0.022439368848372627,0.06871627062102705,0.08499936817912214,0.05312000093173607,0.06890728113947504,-0.0068220628308801,0.06871627062102705,0.022439368848372627,0.06614363975076747,0.13095504191290538,0.05660807105498938,0.05628295046013436,0.046208952664082564,0.09106901702649704,0.08277612210597042,0.04993503829552379,0.12828798159178031,0.05839792360516172,0.09106901702649704,0.046208952664082564,0.08071217768573476,0.13842756822379024,0.13110888192863407
-0.008733076023701401,-0.03081287792680756,0.07506246234705985,0.05699375566125262,-0.1471015352626456,0.023999860190888553,-0.002783675844687437,0.031621204205557085,0.002120141674832589,0.07532117966750869,0.032087359867788975,-0.023624423555500196,0.014494693260898629,-0.02022552421833961,0.014920126749924038,0.019479005849944653,-0.006469269101734075,0.01336768997976505,-0.004534790563891574,0.014920040550964502,0.0010894560500265063,0.08032369814601328,-0.050579379851142324,0.0019444052015113048,0.09397981960035526,0.07462375234727281,0.06079315845450837,0.03378242157356999,0.0035370989272946593,0.019901981724406718,0.004227411870364431,0.06065606981601822,0.138360003070738,0.07003295986461575,-0.02314885433442899,-0.02583846043561864,0.031847772506619805,-0.022470506523101303,0.02690526375889186,0.0236317106075907,-0.053050620050117014,0.015151950767254752,-0.019371395621481474,0.0210447864079047,0.004865885148948775,0.08173355107946656,-0.09179345161990066,0.04392195018482028,-0.07223195964894287,-0.05267283986560755,0.05444135230236021,0.04867457431129952,-0.02352301932767432,0.026095054316008528,-0.06486495093888017,0.04745395873002594,0.029729383818550243,0.08080257568486875,0.09840776331405207,0.03001152675966104,0.04195756599550595,-0.01956717385879779,0.03543770622170056,0.034976425402945384,-0.0462574729672285,0.020775076078722556,-0.021417080162906603,0.027613514790613237,0.0008496241548355847,0.07070109496944772,-0.022954524854715646,-0.06292158068897889,0.04737783574238886,0.04530870836930821,0.03889186174385224,0.028505562254238996,0.013995264913467564,0.025829325733323506,-0.07560257518403567,0.03889186174385224,0.04530870836930821,0.06696155557482082,0.08154849825812252,0.04627021312395443,0.03742722504745809,0.014386566395785526,0.022050544161613977,0.00561892044358332,0.04627021312395443,0.08154849825812252,0.047859271941550874,0.04373204713665265,0.03774871416503328,0.02825953067953382,0.014973091731652587,0.02515562955729424,-0.061525086857263975,0.03774871416503328,0.04373204713665265,0.07552461951235022,-0.03757796220243134,0.013359352409580673,0.06011859776325212,0.07980541268880802,0.04225419903350324,0.03289114500164009,0.013415238234627895,0.020096158749781164,9.96319011435885e-05,0.04225419903350324,0.07980541268880802,0.0727561380429708,0.030033932134031414,-0.02043441141674233
-0.024621974787407006,-0.03983284348570357,0.05086485571633673,0.05850210853143193,-0.07710866229941093,0.04620563596774603,-0.09049289028529947,0.03943672114945437,0.0031295557236459986,0.07144072210718372,-0.013139130060015436,-0.031334975394071686,-0.01069601142959697,-0.023709986352461625,0.0303905921141321,0.0306805492789779,-0.01124062213316625,0.02660980060270407,0.0018322272411963752,0.027757903103237266,0.0010894560500265063,0.0641188542703965,0.058436988805818095,0.008939052977916844,0.0949880944822316,0.03543141927906279,0.07010250288350842,0.04514070129918457,0.00859042315046263,0.035492241950647874,0.015242485398514702,0.06994442166319735,0.06569344379036567,0.07359175568429051,-0.01525923507839426,-0.006932367817257317,-0.004955988443600577,-0.06812291656631717,0.02569485010669281,0.058432800897010584,-0.01671163447140417,0.04764873107096896,-0.10350446684449524,0.06380061914259832,0.005020355926733254,0.07617102367950965,-0.12307331431575201,0.05410151033502179,-0.11221436253986296,-0.08555944177675825,0.07369887015192807,0.08774951866870365,-0.019603958867011304,0.05333295765676485,-0.08666420517450535,0.07192759153646394,0.0806270256971208,0.06763478984817166,0.09414017246486425,0.019985413614708736,0.029570496093720564,-0.03109560407188259,0.031143009994079793,0.034514361633508385,-0.025580321068749478,0.025942513094460815,-0.011763872610010075,0.028133004957413568,0.04503001342593427,0.06638132793080129,-0.08025948025034083,-0.010659927742288754,0.07417939297013534,0.05301699291916702,0.06049779864228887,0.05743734700170499,0.018604951958908437,0.0490058962686489,-0.04717443413155393,0.06049779864228887,0.05301699291916702,0.07008209870323577,0.08660166099623322,0.0515189235834171,0.03722090289491127,0.015083849167149227,0.03575757942618424,0.009719327860625775,0.0515189235834171,0.08660166099623322,0.07086419566021931,0.049202497072556334,0.05966281634355912,0.052589238843035666,0.021034187255828268,0.04173246068076533,-0.008234979978521162,0.05966281634355912,0.049202497072556334,0.0705516760284399,0.018460614836771132,-0.0023177027308983,0.06327368830965296,0.07911705401099334,0.04416939156958887,0.03475915266303445,0.014145300336109999,0.03480786507347207,-0.026420444789294322,0.04416939156958887,0.07911705401099334,0.07363190345430594,0.02602485847712332,-0.013267273298346162
-0.04032326901750693,-0.03819396310172523,0.009673117533608765,0.04396089706888666,-0.01529320120535814,0.036685908427169206,-0.018625005405882786,0.037814138801712575,0.005047897293676891,0.0703324655334182,-0.016913388280952197,-0.030325744671701464,0.00907514167185003,-0.02094576280458533,0.02078445929260769,0.022999541870525518,-0.008702119456301049,0.018267392729155747,0.0036184893304277346,0.018983934400840476,0.0010894560500265063,0.06930403752887543,0.024546532468893833,-0.012560986557041909,0.09434640166478649,0.07388850302530839,0.07420358072401936,0.028734005809192147,0.0043603121120808766,0.02876765334890835,-0.07127044740672714,0.07403625156871381,0.13699677627973797,0.08154756976287923,0.06051616992674356,0.03779513601415483,0.008406990100256813,-0.06472401641513154,0.029079308212951415,0.0645723628327896,-0.019906031356548313,0.0312794517652087,-0.04854270287240856,0.060617374135194524,0.00046342245130574105,0.05583857299882878,-0.11161735675686396,0.03077508475656755,-0.09961626254624475,-0.08103640301148597,0.11357018130844702,0.11873907464568317,-0.031895914507575784,0.044681771510243704,-0.12948633762109502,0.09899376978809843,0.009440694736169047,0.05675661703003628,0.09410460040788207,0.01198326305394445,0.042661290341418155,-0.0424682450184409,0.03254873505492909,0.04471550596010649,-0.019575560453295605,0.023393004294545945,-0.020547983025632894,0.038422130178740695,0.027357862169518243,0.07080346232224287,-0.12294213668384522,0.043875926254990046,0.08741989228153169,0.04234011553013437,0.08086292963625145,0.07991573660445991,0.031138773681361597,0.04962599368667293,-0.14737117029860936,0.08086292963625145,0.04234011553013437,0.06835301146368057,0.09230240382951499,0.05268992753490047,0.028397935322257567,0.014473921472110884,0.028186666224602495,-0.06655300192539201,0.05268992753490047,0.09230240382951499,0.08655265457687333,0.032317740730505744,0.07793214809245286,0.0807957716944837,0.04182970334717208,0.04721413365660622,-0.12156344770955345,0.07793214809245286,0.032317740730505744,0.07318493777997456,0.036195353381625696,0.00423666075455284,0.05987227533006165,0.07361071796358602,0.04004896049498453,0.030773469451545295,0.013785136092941495,0.021636185310281244,-0.03161166209538909,0.04004896049498453,0.07361071796358602,0.06918803979047158,-0.010111142035440975,-0.02261639785658109
-0.0003354355530190734,-0.034328300178080105,0.05692160355774738,0.04883218389827537,-0.1001270656808021,0.024507429275503055,-0.007136227083523835,0.0339869184117775,0.008783266856532903,0.07188575168562031,-0.009226657357894286,-0.020399310514482176,0.09093594982673915,0.004769218509653655,0.05122219016939552,0.027253493042448614,0.09418753138677555,0.02025817684037743,-0.019787341276040447,0.04678489271015238,0.13353427085304395,0.05833952778961198,0.10559018125361365,0.03939378659932201,0.09604904332294965,0.06783717409094278,0.06965057588723848,0.03157800621448629,0.00445786123754157,0.028208639960152004,0.03274768726946785,0.06949351376279596,0.1257769988817247,0.07778968283060572,0.008392442704642782,0.0074339691280741575,-0.012722408742424309,-0.04091854176449195,0.022880344848376682,0.03523834786361782,-0.024774704905709773,0.01471407782355397,-0.022638030836286793,0.03832232133580814,0.0019309100171867521,0.06861372844611369,-0.07035364261268345,0.019816063626330097,-0.06229631063944069,-0.05291955091428705,0.036496486234565195,0.05449217203235916,-0.015695884673823244,0.023139973039979642,-0.011325867558284948,0.04448808645090912,0.006860628807717005,0.07000699431519616,0.04261059005331092,-0.02392459613290442,0.06864282010060165,-0.02167701038784192,0.05355192018293666,0.03658342046642573,-0.06309864976907198,0.025166497644150163,-0.005245631882031994,0.041728342426737904,0.0028887176744175395,0.07313700444550918,-0.004776801365347964,-0.024267327671022503,0.048980219832725685,0.015107271270880273,0.03719250482156511,0.04772491123661263,0.04013963994190832,0.030217410875472115,-0.0004815721420143017,0.03719250482156511,0.015107271270880273,0.06884524539117477,0.07010207515942432,0.05352092816033489,0.03788487444552628,0.019358173791182702,0.029970312364983393,0.020239738913606267,0.05352092816033489,0.07010207515942432,0.04964321828982335,0.013970690390891395,0.035110965622973674,0.04582223095136288,0.04359473432859741,0.027969670210768596,0.003395215725041085,0.035110965622973674,0.013970690390891395,0.07173768572384331,-0.04429861757858675,-0.02549554289069399,0.06454146176521054,0.07102483923334507,0.0473946965623958,0.03498801362136908,0.01690753718802802,0.026780208081982847,0.010947651430305775,0.0473946965623958,0.07102483923334507,0.06751162739380186,0.010433017077315894,-0.004708341371904874
-0.0019830546312755905,-0.028448458745444695,0.049865172582867864,0.04283786740805101,-0.10584375668668147,0.028373163804017536,0.00010137157343258943,0.02816554974486132,0.0017161279404242725,0.07320186944154886,-0.0025092982053383913,-0.022924751230600567,0.07329689779434605,-0.0012458461098294438,0.0509077385600404,0.027481255810506644,-0.3583454509579462,0.022024224372125662,-0.014290847165313484,0.0464976815472255,0.004904784717025071,0.07187691793001245,0.104913927456142,0.054361457975513276,0.09903043924946169,0.09255153531832859,0.07407928460360354,0.03139697703691672,0.0034752234522223346,0.025956538573093123,0.005477783432575479,0.07391223573618481,0.17159993042501365,0.06656763962646577,0.04679611520115367,-0.003966338074278858,-0.05623451270869316,-0.0409668462786935,0.028262572514670375,0.027958735164691377,-0.030566466010888076,0.023885513249434692,0.005322564749394254,0.03836756100064898,0.024870078525965702,0.07220992393168481,0.016993881524755356,0.04353448162260036,-0.06356160566782673,-0.06236447765931601,0.07299297298863922,0.08891093563475415,-0.026637573350341646,0.027441681347448652,-0.01851109688653642,0.06362453137731144,0.006098334157451744,0.06366257967231848,0.0511331959951439,-0.022088892276672847,0.04393452251259586,-0.033441350478165544,0.05008412029326153,0.044026533129251796,-0.03825257246435946,0.02924103038190167,0.005276672808138242,0.03902618831593394,0.030076646108921766,0.0668479446924136,-0.012523452939603514,-0.018598371165593798,0.06526879062629903,0.048690308850282374,0.053547822751050654,0.05667173158068832,0.017930952492953203,0.033034394935339176,-0.02224835136157093,0.053547822751050654,0.048690308850282374,0.06950983550652794,0.08817101301332997,0.05408445112193641,0.03729646211216421,0.015553144909253755,0.025432679221712308,-0.003204140431976884,0.05408445112193641,0.08817101301332997,0.06257282044134974,0.04717211881693044,0.05188438201092015,0.051165853821299394,0.019079210275375173,0.03143436354163979,-0.012283927942543465,0.05188438201092015,0.04717211881693044,0.0725290752060402,-0.016884354702760864,-0.020636621881967597,0.06250267732981712,0.07020641322510869,0.04782973484300302,0.03757776182046329,0.017261639839140728,0.023028252021151625,-0.015506322015187474,0.04782973484300302,0.07020641322510869,0.06928421806253722,0.021584492150864953,-0.008952912705575656
-0.004524316585947631,-0.031888759881033533,0.03260645798734643,0.03850680221095878,-0.061743700675429065,0.02125553267145564,-0.03527627103538229,0.0315716384064218,0.0004040137344083167,0.07325502021793912,-0.047985825562613216,-0.009676668179748767,0.040250990989762786,-0.0063849513461070205,0.04024826046425391,0.02002788560100583,-0.05528050650609953,0.016392579026337808,-0.028444174100463227,0.03676161720854055,0.0016341840750397595,0.0751150038131032,0.11131117312042212,0.09935646838288267,0.09274946070702725,0.07487821718034712,0.06310920332818375,0.025678362683071932,0.00365937388678912,0.024766023061514736,0.03048472691726391,0.06296689200598236,0.13883180667184497,0.07942220059596247,-0.005447042105540305,0.007696316271481853,-0.032141791810492266,-0.03002800891195341,0.04953294964489517,0.03175582832808444,-0.07308592150585168,0.013528377030375346,0.025036615293307255,0.03467022629690714,0.004556943593379815,0.0697670523273259,0.09004391173372871,0.0658884076583218,-0.05399192052390662,-0.06679705561696367,0.03853089890113121,0.07252693468428026,-0.013128125405623595,0.021513983256859014,0.0007611462789005119,0.05615454276561862,0.006039700834543205,0.07009684669876234,0.004312057040645064,-0.039549242070719345,0.03850928817057302,-0.011661964369905969,0.029303164237330197,0.024846520471181403,-0.06417815281414191,0.018563161566482564,-0.02355879427840989,0.022833401067696327,0.004587965984088709,0.07068857556759946,-0.019780829341041185,-0.05550962635699199,0.052111887239513405,0.05773978626124242,0.043404993128723,0.04771079038920034,0.012256559899654356,0.022887854953402134,0.01844980714799078,0.043404993128723,0.05773978626124242,0.06410654871540815,0.07755262346730123,0.04686861234345283,0.030303779609852578,0.01532347357823147,0.024870799220123394,0.028702200997433612,0.04686861234345283,0.07755262346730123,0.04977166069977657,0.059280751958634206,0.03817913499069954,0.03986738452382575,0.011171757769923709,0.02216775721483973,0.0040594968223259895,0.03817913499069954,0.059280751958634206,0.07454268510132132,0.00808541560824339,-0.044223205432376865,0.05506604682612827,0.07100624730093566,0.04196417351309843,0.03229799140451744,0.014974177504993498,0.02201628453863173,0.01091412277410685,0.04196417351309843,0.07100624730093566,0.0758498806196083,0.07203140849732008,0.015457743525605975
-0.08312864294272126,-0.07553725386957232,-0.01255450756509607,0.061174207110503205,0.010036103984788606,0.04022406127942284,-0.005466187419775183,0.07478606487932604,0.04310913386345772,0.06611884597212299,-0.02859270827666801,-0.02327852800474362,0.04219115158610718,-0.038738039935970366,0.029007017912412905,0.041982122930571734,-0.006566711425330296,0.03335525270731636,0.0018781923931613911,0.028576422567355746,0.005996473258957369,0.06756331586325352,-0.057745286580377586,-0.008232277339393839,0.0699079443209733,0.05754426270231458,0.04703247656644658,0.022891800309655524,0.0035486682439331394,0.02635264468022781,-0.0014288915511984225,0.046926418280592935,0.10669289755283357,0.07367212018305026,-0.012733282335914614,-0.020015399478743767,-0.03147574004367371,-0.03206559260038823,0.03509024599889026,0.04165294738955659,-0.04848564919917155,0.02750095203790914,0.01331783131022148,0.03003107858847341,0.012126092648437739,0.07121062148890664,0.024711268739556178,-0.03330750717955668,0.10299616027835647,-0.014083097153467412,0.06355853374259779,0.04321483628920712,-0.10271327799198336,0.03004967530911565,-0.02982174267588243,0.055400975721748166,0.003225078569786662,0.0668838990206457,-0.05250272113770089,-0.014974159415081886,-0.15130751167492004,-0.07046141087801523,0.01768526029690699,0.049667488890825506,-0.006410686294304676,0.037875330912894384,0.035353707814526236,0.0637482782760922,0.01920146583107318,0.06936095605801507,0.016249628084805567,-0.029361416889827317,0.06935058051694877,0.05855521574239049,0.05137259507939886,0.05376913499590582,0.014304411372850816,0.032858769824160444,-0.0025664439226710197,0.05137259507939886,0.05855521574239049,0.06673814300134338,0.09559023101573565,0.05317076833111339,0.03544360369977461,0.014103634582390228,0.026281094399290127,0.0011039794002935114,0.05317076833111339,0.09559023101573565,0.07253243773360202,0.05860746379848272,0.050914717287738734,0.05531541746152331,0.01506952414304956,0.03132289928555411,0.005050646111026037,0.050914717287738734,0.05860746379848272,0.07165742434779435,-0.0024534958403701836,-0.04469756287093721,0.06716488305932279,0.08936715209124417,0.04889985937440064,0.0354978614571417,0.013864064031058752,0.02432488145165487,0.007020846089885898,0.04889985937440064,0.08936715209124417,0.06596823854532517,0.046370733107888217,-0.010131611645250073
-0.09962520491409695,-0.05365671728077457,-0.00617440721032994,0.047163476915680694,0.006948608307720575,0.01565469825330499,-0.010931960231888272,0.05312312182675303,0.02120141674832589,0.06184215981114662,0.05232986933573842,-0.01664034836434128,0.044840102537460076,-0.021413004929615762,0.03631777634035673,0.04780992206443488,-0.01487387487710705,0.012560765918697252,0.00013752023016561885,0.03317162471842332,0.04305807138701071,0.0715811275543044,0.009252496105731664,-0.03135317098289126,0.07170774554747683,0.05876018068939436,0.04424196850489944,0.025232995982095014,0.0032690450231615893,0.010230441931513847,-0.0004762971837327984,0.04414220281776214,0.10894733278470478,0.06981630867741007,-0.027809534586878876,-0.0288277608343042,-0.0685429423398758,-0.018922300673087547,0.00030554166149945276,0.010756994080352468,-0.0007154224586526491,0.007856411287545596,-0.005916501145281461,0.017721708925514612,0.004016290812157984,0.07348651391999289,0.055220735132527114,0.009700569658466931,0.11603920904526484,0.01568260824126611,0.04546693656302908,0.019865035503126387,0.06598242837520137,0.011208991480105379,0.006363189990979297,0.039631383865333394,0.2236447156234725,0.07074333233241742,-0.021680267735157965,-0.03661634522810972,-0.10316949483131321,-0.043527614363213854,0.007995060606558422,0.025947172922344997,-0.004691387420805738,0.016884194532515707,-0.0140607791576193,0.03938056928670381,0.041121737861667125,0.07024656825736975,0.05152480308051642,0.011343314211179695,0.05586891999834575,0.07199547239970253,0.037669580064482795,0.037786834697049604,0.008530798132383869,0.014825177214881576,0.00855057171636145,0.037669580064482795,0.07199547239970253,0.07200204071939584,0.09723151980829801,0.04185011887333123,0.013185220556739633,0.010913429417541523,0.00957552147926003,-0.007632409499134834,0.04185011887333123,0.09723151980829801,0.060132192431168165,0.06730758587928237,0.038414647983616344,0.041145067622406314,0.009900154537447027,0.015320199209817946,0.010122380269678382,0.038414647983616344,0.06730758587928237,0.07234136601439647,-0.029720632658454826,-0.03988934480856888,0.07373756207243504,0.09606413377729794,0.04020896609988583,0.014082527961123985,0.010605288778736923,0.010638009444800905,-0.005290712911888027,0.04020896609988583,0.09606413377729794,0.072695959383671,-0.1083418549958148,0.10872998696736141
-0.10250037186813922,-0.05720964884765454,-0.06874113146213262,0.020883237943421437,0.07255612093691423,0.024283239734831298,-0.004150222699631875,0.05664072085320537,0.23604037217400364,0.0692422835812519,-0.022030495710183857,-0.017977359664621252,0.07622075991133545,-0.023690531219610532,0.045295005943170895,0.036026701036812006,-0.016767102252403333,0.035619085330243626,-0.0002748528474660677,0.04137117109496634,0.024526156077031142,0.06592835465493732,-0.018058571759484332,-0.013198139954262786,0.05410690977230684,0.034074080463041834,0.04116894822624931,0.02624829054363879,0.00524584204460424,0.016561242137273065,-0.012563222285105249,0.04107611220318544,0.06317680000275862,0.07001481256458286,0.0003300599371594687,-0.020888028424160463,-0.01060978239290822,-0.024284131088027888,0.013197034861055138,0.023031427468596592,-0.024077969942432116,0.023144010893778544,-0.0038834164691938775,0.02274333919992878,0.002239851572755712,0.05763760439218436,-0.07687117437713632,-0.008021311882090753,0.05820554836431349,-0.01601978009757022,0.032173855903611256,0.029809141880239594,-0.0457085513422347,0.015307526416383626,-0.017856508972824366,0.028044432507044453,0.0011141176323868406,0.06407734060995221,-0.053191987593683,-0.018326037441218603,-0.06713660790112766,-0.03876935505533558,0.013607624755747356,0.03475300247879387,-0.008964749367669158,0.02140075080791652,-0.0041282236004753625,0.035075647845468905,0.003568408094239111,0.06905543495719459,0.030356270787547844,-0.053031141529958505,0.03865506194054861,0.01905850525946407,0.030041735359143885,0.03287011461093162,0.025700421842687986,0.02351610619510603,-0.009244532470289274,0.030041735359143885,0.01905850525946407,0.06327947272234158,0.09945197301122766,0.04198531808513529,0.016663166112282437,0.010704235779089842,0.017403519164601748,-0.01273328645194448,0.04198531808513529,0.09945197301122766,0.03929626268276159,0.019325419893268678,0.028484109948194145,0.03172038460350741,0.02556718091865257,0.024061328910130905,-0.0052088099214307754,0.028484109948194145,0.019325419893268678,0.07426817379180062,0.0034634850675298555,-0.03806845734870863,0.0663830934022113,0.095524586755203,0.044734429283671336,0.02240178851415682,0.011865542440312902,0.018063676988588743,-0.012078902838638567,0.044734429283671336,0.095524586755203,0.07095476762065496,0.042434084713350584,0.009961402165892051
-0.10347303140373494,-0.09031192732461012,-0.0211397877604776,0.07648262414631403,0.014134556105604048,0.05106576738600956,-0.03142974844838504,0.08941380987899437,0.07258890368150735,0.06753174467728658,-0.031673630257620246,-0.026833063931277427,0.04869038372950052,-0.03973080985043349,0.027607795187025212,0.033477213426318944,-0.006093780375417398,0.026887648640655553,-0.010580615143820206,0.029308772800737407,0.004904784717025071,0.06374884636110258,-0.04697560339379456,-0.0011978717221854639,0.05426207877369147,-0.018097464801030246,0.039847133489258287,0.04915724750274398,-0.009559802639045002,0.03155163236252772,-0.009764701965937712,0.03975727815986517,0.003093244911399594,0.056948229710344966,-0.0708414926085879,-0.011438644982147424,-0.008932696651734942,-0.0576978665588267,0.019713291341469857,0.040127682284694766,-0.015137893936814436,0.03451957095342019,-0.002649859945446517,0.05403702300497631,0.005252067152386125,0.06472004782482166,-0.10831437511291435,0.05173806574436401,0.10815409729904205,-0.017981133877214592,0.06575950665330905,0.05388376936933775,-0.08323239026781329,0.039791102914228875,0.0017201935018549155,0.05731945998515743,0.0008209279731738004,0.071924546339241,-0.020211150837689335,-0.032842475033521785,-0.07635593274618699,-0.05062271791687332,0.058745866762004745,0.058851365580353907,-0.029639867739793907,0.04196966940138723,-0.04376533931529941,0.045799694735659265,0.027867618854325798,0.05952478279486475,0.059213550021175475,-0.007749175595517876,0.062189823093562926,0.013991116918812245,0.0491660303167415,0.06521080957639735,0.0572950141304206,0.048338808226134,-0.02373240158665132,0.0491660303167415,0.013991116918812245,0.06932467212150516,0.08631951695881415,0.06025052158051886,0.05029076946448054,0.017697969069739614,0.03928475672409599,-0.041212762421666514,0.06025052158051886,0.08631951695881415,0.06216603984314386,0.013823409337991314,0.047492465952952,0.0670105788062352,0.05959621544749855,0.048907777337043185,-0.005324793492733889,0.047492465952952,0.013823409337991314,0.06916350206121036,-0.008317405407747808,-0.05055056549437741,0.06491260792088188,0.08973914313232136,0.051880137862927694,0.03373574901217662,0.014648058531414694,0.0381085433014322,-0.03380765278105985,0.051880137862927694,0.08973914313232136,0.08618327696605636,0.08670261034084137,0.037179939546156414
-0.103751383361049,-0.08455716818623388,0.021228062394477443,0.10369867234837052,-0.015159559685830973,0.03416289374414452,-0.009059592028937665,0.08371627961094126,0.002826855566443452,0.06801452280759662,0.005630446853649068,-0.03394252171967434,0.07374792594152667,-0.015495215974388148,0.034887063375981804,0.03776074439711947,-0.019744642344745007,0.013432963536709442,-0.010031284674617374,0.031864852159187884,0.03215681341102827,0.07477030260398862,-0.014159415621168098,-0.0243480358398166,0.05274522095126476,0.00947287906356391,0.04556378324189046,0.04495012502895886,0.0208836961893666,0.019469672969040033,-0.015063721529760331,0.04546103686108241,0.01756367825386272,0.0718975549633373,-0.02843494027448263,-0.022418887521145636,0.0012129274090818757,-0.023954780349467724,0.0245960764253225,0.029622630932114973,-0.04549249053931698,0.021704582307856532,0.0015533635951626643,0.022434885274372693,0.0043252323677269435,0.07161157250413057,-0.029713177794029665,-0.022978678007204004,0.12638711567752128,-0.03634467028387199,0.09814751084852556,0.09607090246013832,-0.06145956068205182,0.04132518144719253,0.00952955922911945,0.08555055545633072,0.03529997966204122,0.07030826623128729,-0.002105476646685468,-0.037928705137504425,-0.10788143777979385,-0.04900695741820859,0.01993855523816234,0.04530346526489994,-0.010391550428787524,0.03075885251803103,-0.050314625035525494,0.044337874022549836,0.012744340062416528,0.06796341556651814,0.07422972784811942,-0.02517455773994565,0.07904414475224912,0.03444619170123653,0.06795786137599831,0.08924354839681448,0.03216640762052847,0.039006084202932514,0.01237684191093639,0.06795786137599831,0.03444619170123653,0.07456341319797799,0.07331363148148078,0.054278868819696645,0.05567069067452952,0.018772308314244496,0.022098470975614015,-0.0102162052930895,0.054278868819696645,0.07331363148148078,0.07612647698629607,0.03416927731385788,0.06387281889239732,0.07893478005669978,0.03242570443536435,0.040291823803527846,0.002688755769937547,0.06387281889239732,0.03416927731385788,0.07262651439492351,0.013467696371635703,-0.0387259026039165,0.06805151973181196,0.07632666402424867,0.04351431485919995,0.03366293191572448,0.014444972925253872,0.01876959221269968,-0.0035607160292409124,0.04351431485919995,0.07632666402424867,0.0765603621227779,-0.018733641553572166,-0.014985856183363053
-0.11975955464177362,-0.09301418655761196,-0.01805258415531263,0.07889021046792814,0.011719709523757848,0.04399242299471478,0.0016702469675790573,0.09208919618134762,0.06198819530734441,0.07355522292097022,-0.01113226895081283,-0.02708455912618024,0.04420150913047182,-0.025890236978200913,0.04661566406413236,0.03841539553206883,-0.01578986223051057,0.0428162866577958,-0.014061959469813175,0.042577422688106735,0.0021811445919588048,0.06681069115782227,0.02057139776054027,-0.0013504134300740766,0.044659811273565234,-0.004948570775193711,0.04037814539609808,0.04004010736473986,-0.035427145734532664,0.024578158666182216,-0.014349641573810887,0.040287092634277016,0.005400078904613593,0.07074478751166492,-0.04659290511673929,-0.011815216651801252,0.0015175315151237379,-0.021139929401254396,0.039373700753542754,0.028408796488122907,-0.08252181593318794,0.0419823880302353,-0.018594712327642766,0.027559334242327243,0.0033983975830677634,0.07341781091356475,0.06191230768161515,0.016741040152884763,0.13831603772694945,-0.012746744876695363,0.08327607509887594,0.07134963977346916,-0.1486866065279301,0.03851159604760865,-0.006758985896471174,0.07258782641902298,0.00011727432737385992,0.06812142198483523,-0.0066069639580878725,-0.0395743449489085,-0.10978945676462326,-0.07784138648322235,0.04895230545255169,0.07247953315964574,-0.016062272564672325,0.05191023337939302,0.0022969106137509594,0.07042513490852594,0.003058651409431553,0.07004514356315823,0.023010834751180126,-0.05119921260676704,0.07667297051781785,0.024596295953006973,0.06221475195384185,0.09072217761431114,0.04124086218008983,0.047508169349457445,0.010417074430186798,0.06221475195384185,0.024596295953006973,0.07055232008227294,0.06771808387898251,0.05936829579973462,0.06277306640009835,0.022229082808037638,0.031334575986636845,-0.013123035548074894,0.05936829579973462,0.06771808387898251,0.07326241937011035,0.02717341214164309,0.06216250538352857,0.08796946715839345,0.039681991888748706,0.04361762923072131,0.007591784166296516,0.06216250538352857,0.02717341214164309,0.07218335001672968,0.0005483992590594156,-0.05266673740922096,0.06561414512506669,0.0746152156888053,0.046344582972624976,0.039293776900406335,0.015737380428976062,0.03294897189034516,-0.01713695958739124,0.046344582972624976,0.0746152156888053,0.07398612074096157,-0.002326560930545013,-0.02048162593511976
-0.11314053861896273,-0.08550796784620068,-0.036340487048463856,0.06346939136598967,0.025663200687987834,0.03787212589112903,-0.008097909556230107,0.08465762393331093,0.12478441808350546,0.0693402811384904,-0.03665639055655117,-0.022275287987095695,0.05089399548342463,-0.024177228477492062,0.03425816015727155,0.0305711840294161,-0.012426247851934042,0.029103129747629134,-0.00288567347909498,0.03129042983333411,0.0038153286669985642,0.07438511567940283,-0.006071039676134355,-0.0023746495506157934,0.04635604744712568,-0.00022620383204103727,0.039960092100552055,0.039155562043435274,-0.7670013086690947,0.027391489173861097,0.0015479048771894783,0.03986998204936751,0.00041940483976419103,0.07010497505314618,-0.04054749446087941,-0.01832099211107979,-0.016556027561485318,-0.028477864822821747,0.02896766824212267,0.03474833105929545,-0.04506840479511752,0.04587053109291823,-0.0070129915105354695,0.026670986785871154,0.005097596374601644,0.07349380554604629,-0.0003300707918359688,-0.029576682773051744,0.12689920143554198,-0.008326502606144866,0.09787784212919935,0.06561492278585396,-0.2675301042942811,0.05849210516936552,0.02963906549497283,0.08531549795433091,0.006567439148503965,0.07096093742285817,0.03160761691053008,-0.02420009471064722,-0.09388657817289546,-0.0888668390885242,0.035913172648477786,0.07484907948513793,-0.010321871411013567,0.051797702146722704,-0.01579897749830848,0.08040014977190198,0.006627059503670664,0.06955203666019984,-0.02569163299181933,-0.04927639436593105,0.07404913106696982,0.020740376511033363,0.06416361087109582,0.07858933296295151,0.0504401340779691,0.06051030804970365,-0.0036083024599698273,0.06416361087109582,0.020740376511033363,0.06694622690283268,0.08714262768672307,0.05536755182546222,0.048343185036384254,0.016110027866211192,0.02662998365966061,-0.007374801325292527,0.05536755182546222,0.08714262768672307,0.06799147843371743,0.021008634092049748,0.05570294521553238,0.06920970566301828,0.0459927599284174,0.049257209975113486,0.0036166436783247255,0.05570294521553238,0.021008634092049748,0.07359611715258786,0.005365922192435523,-0.043198002086500265,0.06378187263608794,0.0891252283805887,0.04469442788244601,0.031183173296485074,0.01270613865539089,0.025190305777222487,-0.0008320831142016344,0.04469442788244601,0.0891252283805887,0.06262983916089208,0.05801281067181171,-0.006023893133926988
-0.09310151127139907,-0.08196753938452318,-0.025079630395272685,0.06641055506681595,0.018475912454073075,0.029202355677489803,0.0005568180904701842,0.0811524036734799,0.0861173676745146,0.06672143530410583,-0.031248584935783887,-0.026502439278175197,0.013057142577783688,-0.08582711591412293,0.023048407844417786,0.05661042583186986,-0.002355043331176597,0.03425642560955129,-0.005633826728026217,0.06331326871863742,0.03433795800298708,0.05350665375124863,-0.09521870099512114,0.02100491155422089,0.060757670205914174,0.013120633024803248,0.04456959938075354,0.04162364981510365,0.014748692601479157,0.02415262689823107,-0.0035128441548824786,0.04446909488563455,0.024326983949476355,0.060104297722869265,-0.0679116886373808,-0.013152194348668331,-0.020692682556051268,-0.022452940774537612,0.01776840294110262,0.025804283739782746,-0.03506236739720683,0.017683601388952235,0.007264272983991165,0.021028335179881077,0.0018536695693183616,0.07276755717291811,0.006704250838464606,-0.03454113646826371,0.07222625513069297,-0.008351173980339202,0.043436489826839134,0.03462015862720716,-0.11837448037290262,0.023568692800972162,-0.031085243225463306,0.037861539224304956,0.002052327614491282,0.06991317429314768,-0.0244561770580807,-0.03428767152200482,-0.05616936725760072,-0.06692721234193814,0.05402221754707682,0.06512101626091277,-0.020616459033182256,0.04440574655177759,-0.05568441655584067,0.06055079657719684,0.030586425053846567,0.06689193093884581,-0.01530920058449674,-0.03438262198965226,0.0492835405244072,0.033399029519416916,0.041889073607870475,0.04924101870555276,0.020448948461720146,0.029763995199855113,-0.016471867641318343,0.041889073607870475,0.033399029519416916,0.0683366357627181,0.08767705125822733,0.057004764144261956,0.04243113528674182,0.016485299440970567,0.021211697277345492,-0.0006106927473468988,0.057004764144261956,0.08767705125822733,0.04708867376349107,0.032149418345934676,0.03982772764330951,0.05051370642686361,0.021489263865365815,0.02793826494568604,-0.0018557689103592913,0.03982772764330951,0.032149418345934676,0.07414044744920517,0.017860649167075145,-0.04289356108617537,0.06775142734956964,0.08972062739635621,0.0546704045751274,0.03698577654421133,0.015439059805962062,0.02133304222737037,0.006688149139555101,0.0546704045751274,0.08972062739635621,0.07184728806327675,0.06757252877297022,0.023622754277079498
-0.08038907510730814,-0.07174660957714203,0.017229329860601973,0.06423690409143583,-0.014500856825347007,0.028187205421268145,-0.005668515958978421,0.07103311708911876,0.0051487973460777395,0.0711696607574452,-0.0213652718137386,-0.019173117419148747,0.019752514459888897,-0.058632667427539274,0.052998780584896064,0.05944033773536337,-0.007926997403564975,0.02852809702371691,-0.05102544616453428,0.048407579903031135,0.0038153286669985642,0.06582601538315488,-0.04134434076484768,-0.003755525324338708,0.059768257537345715,0.03059600833177696,0.0381524766665672,0.027307812418051497,0.005414115884214255,0.015513238049157482,-0.02197064039330274,0.03806644279015394,0.056728101624223606,0.06270935920125821,-0.07006834430927057,-0.009729601665662455,-0.06372220250284603,-0.04104149912810757,0.019113960242540598,0.028572299557548617,-0.020634480291131817,0.02490463960552419,-0.02953680703185997,0.038437477238142136,0.003630108808720634,0.0649519464913953,-0.009874174396193475,-0.015189813303445413,0.0615935639154679,-0.009391472998695851,0.04441602163983029,0.027977557212044788,-0.1076358232648544,0.018216047352619127,0.002770575326853556,0.03871535089985392,0.01477673424335553,0.07181627802602282,-0.0008439433386190575,-0.026234846557310856,-0.07093013561931044,-0.05761099437831513,0.022129832260124264,0.05571672018411658,-0.009811087630795585,0.03517367985055768,-0.0444482071605027,0.052122170924867324,0.010025556123013002,0.07002812338539154,-0.02324200594033233,-0.060004983782549405,0.043810766378109434,0.007147360498369273,0.04512416471658445,0.05603315178118383,0.10293606457175737,0.02981963760301315,-0.03812461475989956,0.04512416471658445,0.007147360498369273,0.06361565628973381,0.07782860058461682,0.05218464148089661,0.0385011038490845,0.017001024953043228,0.020419712105242446,-0.0014149754385762352,0.05218464148089661,0.07782860058461682,0.046049123209236015,0.007974233347736314,0.04978912600047409,0.06020793516336761,0.1083065426486081,0.03224955961113127,-0.03638784539856894,0.04978912600047409,0.007974233347736314,0.06938267116878971,0.018046588293842366,-0.0400269553273586,0.06461140330336164,0.08066109875830754,0.05052000829315355,0.036990215066437605,0.01586938670392455,0.0203794506451752,-0.021063083451059027,0.05052000829315355,0.08066109875830754,0.07085920486471826,0.05606925271164434,0.010058154567521196
-0.09626776948399896,-0.05690942059609186,-0.015347622962583534,0.038817056943465114,0.016284844629583496,0.018425605069693783,0.0029862116877223646,0.056343478256343935,0.05270001466400234,0.06796262643168333,0.05903063766304107,-0.004050387590913969,0.10410192142678573,0.0029978446103915155,0.050986367561683364,0.043073466358050705,0.14915143823359064,0.011509788422007457,4.5965151965319144e-05,0.0465694990426041,0.08393723067396841,0.05852792741468295,0.06769646876202627,-0.012834319808639338,0.04989551356630664,0.020953447438238595,0.03365597427320692,0.028492727092985115,0.006973908779008126,0.015182797334449785,0.002083708723918572,0.03358008001458527,0.03884981605328227,0.06848576522795359,-0.05261226770532574,-0.01969339725400646,0.0117909559090355,-0.027485421026183832,0.02906755675861088,0.035729465833651046,-0.04685675489151518,0.021847963421054113,-0.03127292351000396,0.025741512067505423,0.0028577448018459327,0.07104006976254694,-0.04329725789546612,-0.02434015564486314,0.024118713795015387,-0.010180948354470252,0.01497454422483058,0.012557369386936329,-0.03347466762279863,0.014629072706766893,0.002374779421361704,0.013052603831357286,0.006977903135090865,0.0666665316024954,-0.03211470849235486,-0.012382128412102742,-0.10931533606962876,-0.05680979060358454,-0.0045634380621451115,0.04163320984660434,0.002051697720262188,0.021346735231288133,0.012974403669885424,0.05139730094921776,0.15004338533469805,0.06582494441243135,-0.02551949408369041,-0.066460879018237,0.04025866414318658,0.03354757738516654,0.03398095682291829,0.041445915307277224,0.01651499749488828,0.02129090558896418,-0.007696386228953705,0.03398095682291829,0.03354757738516654,0.06297647398636791,0.0965737758478109,0.04066370115367422,0.013015333729179922,0.010676264271694479,0.013853361099634125,0.006378631683368094,0.04066370115367422,0.0965737758478109,0.03880863983329975,0.028551546325054113,0.03028700442229006,0.036313645654888246,0.018400762366078845,0.02090050962463904,-0.00446017525235767,0.03028700442229006,0.028551546325054113,0.07189287318066968,0.015930880363279578,-0.04367294227183047,0.0637201773610108,0.0918784345025145,0.03715868003870738,0.02059939939270649,0.010247255275466343,0.014979222209269848,0.006622045894610855,0.03715868003870738,0.0918784345025145,0.07284798170078684,-0.008118586322428114,-0.02613940438089298
-0.1057971280498947,-0.06606697155444952,-0.032929930929943396,0.0542311290821184,0.03009768426675139,0.027086563865651902,-0.002176275619416914,0.06540996088609363,0.11307339560812825,0.07016507066575535,0.009741783716427845,-0.03067778863936128,0.0606449843857924,-0.04599895066528291,0.03265454066594219,0.05474136341768463,-0.006225556021770517,0.030378754760418847,-0.009573134057886616,0.03393267842252141,0.027796756719016456,0.06345519838404517,-0.058937851015921194,-0.012382864613922438,0.05390333664922236,0.012781385188629056,0.04294273623505769,0.04023528109578411,0.014587516911137835,0.022240116549517547,-0.01298001280584176,0.04284590031810314,0.023697984064341017,0.06457681329680272,-0.04940538232483938,-0.020615855108304895,0.05207394419283227,-0.023432210403569274,0.047541055427165795,0.03933432159199639,-0.0898921221517503,0.03135114158522504,0.010256787851869155,0.03327601448874167,0.018845647366704875,0.06943009365436163,-0.025006256817316865,-0.01924660068619196,0.046403879710239834,-0.018737715324253012,0.03830881874877381,0.03243335470307397,-0.046529996434144065,0.028120739692566933,0.00035012661026444995,0.0333919902247091,0.002228235264773681,0.07219189154494368,-0.02522855167224514,-0.028697210524346164,-0.12235717079958353,-0.07832655977000177,0.08005397039277652,0.09608225591772333,-0.026104671246288454,0.05106309773434243,-0.0401027133418506,0.07086408384968873,0.007646595133403021,0.06574564397479463,0.06907578911166651,-0.019680880212025454,0.0691619775305857,0.07808559669060988,0.04866001620122506,0.04691179334694732,0.010160273249845317,0.032549195407675,0.001072158881975107,0.04866001620122506,0.07808559669060988,0.06929036145172358,0.09647342531472244,0.04781484197092094,0.027383041929928294,0.012566856284276855,0.0179781397467546,-0.0009979374206493935,0.04781484197092094,0.09647342531472244,0.06710372335772107,0.08092059154749345,0.04572043158782442,0.041686062498354576,0.009800774624883374,0.030577589685732775,-0.003859156916668659,0.04572043158782442,0.08092059154749345,0.0740144788990123,-0.004818118210749047,-0.03560918770931015,0.0707304585876499,0.1099788998462024,0.044109379226736745,0.020182021930125717,0.010162075995182396,0.019361734771791407,-0.0012644119656748895,0.044109379226736745,0.1099788998462024,0.06450022107803327,0.019821723908486584,-0.005998297263096812
