AccX_mean,AccX_min,AccX_max,AccX_std,AccX_max_to_min,AccX_mean_abs_change,AccX_mean_change_of_abs_change,AccX_abs_max,AccX_abs_min,AccX_entropy,AccX_skew,AccX_kurtosis,AccY_mean,AccY_min,AccY_max,AccY_std,AccY_max_to_min,AccY_mean_abs_change,AccY_mean_change_of_abs_change,AccY_abs_max,AccY_abs_min,AccY_entropy,AccY_skew,AccY_kurtosis,AccZ_mean,AccZ_min,AccZ_max,AccZ_std,AccZ_max_to_min,AccZ_mean_abs_change,AccZ_mean_change_of_abs_change,AccZ_abs_max,AccZ_abs_min,AccZ_entropy,AccZ_skew,AccZ_kurtosis,GyroX_mean,GyroX_min,GyroX_max,GyroX_std,GyroX_max_to_min,GyroX_mean_abs_change,GyroX_mean_change_of_abs_change,GyroX_abs_max,GyroX_abs_min,GyroX_entropy,GyroX_skew,GyroX_kurtosis,GyroY_mean,GyroY_min,GyroY_max,GyroY_std,GyroY_max_to_min,GyroY_mean_abs_change,GyroY_mean_change_of_abs_change,GyroY_abs_max,GyroY_abs_min,GyroY_entropy,GyroY_skew,GyroY_kurtosis,GyroZ_mean,GyroZ_min,GyroZ_max,GyroZ_std,GyroZ_max_to_min,GyroZ_mean_abs_change,GyroZ_mean_change_of_abs_change,GyroZ_abs_max,GyroZ_abs_min,GyroZ_entropy,GyroZ_skew,GyroZ_kurtosis,total_angular_velocity_mean,total_angular_velocity_min,total_angular_velocity_max,total_angular_velocity_std,total_angular_velocity_max_to_min,total_angular_velocity_mean_abs_change,total_angular_velocity_mean_change_of_abs_change,total_angular_velocity_abs_max,total_angular_velocity_abs_min,total_linear_acceleration_mean,total_linear_acceleration_min,total_linear_acceleration_max,total_linear_acceleration_std,total_linear_acceleration_max_to_min,total_linear_acceleration_mean_abs_change,total_linear_acceleration_mean_change_of_abs_change,total_linear_acceleration_abs_max,total_linear_acceleration_abs_min,L1_norm_gyro_mean,L1_norm_gyro_min,L1_norm_gyro_max,L1_norm_gyro_std,L1_norm_gyro_max_to_min,L1_norm_gyro_mean_abs_change,L1_norm_gyro_mean_change_of_abs_change,L1_norm_gyro_abs_max,L1_norm_gyro_abs_min,L1_norm_gyro_entropy,L1_norm_gyro_skew,L1_norm_gyro_kurtosis,L1_norm_acceleration_mean,L1_norm_acceleration_min,L1_norm_acceleration_max,L1_norm_acceleration_std,L1_norm_acceleration_max_to_min,L1_norm_acceleration_mean_abs_change,L1_norm_acceleration_mean_change_of_abs_change,L1_norm_acceleration_abs_max,L1_norm_acceleration_abs_min,L1_norm_acceleration_entropy,L1_norm_acceleration_skew,L1_norm_acceleration_kurtosis
0.0084609375,-0.127197,0.184814,0.07932195418569377,-1.4529745198393045,0.024952634920634917,0.00017325806451612882,0.184814,0.000732,2.6815888372635412,0.18291651984317042,-0.6927198029600827,-1.09440228125,-1.310303,-0.699951,0.180605814978232,0.5341901834919098,0.030110698412698405,-0.0002874516129032259,1.310303,0.699951,2.5397183150535554,0.789002842476368,-0.5706153070939237,-0.42385475,-1.102295,0.02417,0.35553916493373516,-0.02192697961979325,0.04376707936507936,0.0006457903225806453,1.102295,0.008057,2.5697022515050736,-0.7371386326344574,-0.8976444686060727,-60.177480890625,-172.183206,83.656489,101.35319254211946,-0.4858574244459125,5.830001222222222,0.001354338709677587,172.183206,1.709924,2.1667350912252097,0.3298378066756837,-1.6669808583706305,9.8278864375,-65.916031,51.992366,34.0222102636429,-0.7887666355396913,4.3934326666666665,0.16313717741935477,65.916031,0.335878,2.571071602273453,-0.8443505864408667,-0.44233503537349605,-5.27218509375,-20.748092,27.801527,12.616855075371967,-1.339955837866923,1.0570702063492066,-0.003693677419354844,27.801527,0.519084,2.2967007337264946,1.1355108288062112,0.2561367702768127,114.09871755260458,28.918692192055104,174.00335074438854,46.574383836568266,6.016985470463041,5.172440901006261,0.05345229104733837,174.00335074438854,28.918692192055104,1.2383279056723755,1.0067258097545726,1.3451431463695602,0.0826249749233554,1.3361564125364875,0.018325489850187098,-0.00039891175028875767,1.3451431463695602,1.0067258097545726,149.220539140625,37.496183,216.900763,53.81180116305721,5.784609142749277,7.748455174603176,0.2514159032258068,216.900763,37.496183,2.593948877496744,-0.36803510184606125,-1.2512667033609692,1.5842055,1.10376,1.936035,0.21979332136812468,1.7540362035225048,0.03725285714285715,-0.0008466290322580656,1.936035,1.10376,2.5521685102328484,-0.15952716810865394,-0.5503457503265676
-0.013324671875000001,-0.160645,0.140381,0.07251916470707079,-0.8738585078900681,0.02296863492063492,-0.0005315967741935487,0.160645,0.000732,2.7115393061737825,0.13205410166003143,-0.6334403921608267,-1.04431921875,-1.276855,-0.815186,0.12732041272423225,0.638432711623481,0.028056777777777778,-0.0007481774193548344,1.276855,0.815186,2.8730216414985983,0.23024456993658213,-0.9377000950021825,-0.38606640625,-0.952148,0.097168,0.3381710885171587,-0.10205136176308725,0.03724501587301587,-0.0011773870967741937,0.952148,0.002197,2.6257158161281486,-0.4057123458445461,-1.1966833757561612,-57.21135490625,-143.656489,64.198473,77.41678328058143,-0.44688877924616416,5.1165636984126985,-0.04420093548387086,143.656489,4.854962,2.4072549855336227,0.5216405332273238,-1.3661717489948848,-13.667461859375,-53.641221,24.984733,20.232596623691304,-0.46577487488586433,3.4946080317460324,0.06870227419354845,53.641221,0.496183,2.869707621379736,-0.18886151560450573,-0.6129897102156598,5.211832078125,-3.824427,27.687023,7.080368970651926,-7.239521894390976,0.9272991111111112,-0.0545432096774194,27.687023,0.038168,2.5249133184090793,1.1477046550482493,0.751839819696976,91.36076736025166,16.998589417622775,145.29686451263242,38.93612775926019,8.547583622556369,4.645223878139858,0.06292898615957619,145.29686451263242,16.998589417622775,1.1675638366325756,0.9400444390080716,1.319011599276519,0.10243514044750529,1.4031374949341022,0.02496700899601833,-0.0011425599571908856,1.319011599276519,0.9400444390080716,112.8072519375,26.946565,167.351145,42.420769622470516,6.210481558595688,5.933963476190476,0.14553061290322555,167.351145,26.946565,2.5454140646879346,-0.33070201087987544,-1.2755862341270363,1.502494796875,0.972168,2.0070799999999998,0.29156030180421405,2.064540285218192,0.05267242857142857,-0.0026934193548387064,2.0070799999999998,0.972168,2.7759332248714297,-0.17134639117096284,-1.1316776470836318
-0.006420171875,-0.227783,0.061279,0.05007056166719526,-0.26902358823968425,0.01825246031746032,0.0018940645161290323,0.227783,0.000977,2.5800906952776215,-2.391709382948096,7.404393611397399,-1.000610296875,-1.277588,-0.913818,0.07424810767374945,0.7152681459124538,0.018856968253968244,-0.0001732580645161295,1.277588,0.913818,2.4960735973877926,-2.1427492057625925,4.782799194716951,-0.213607765625,-0.940186,0.227539,0.20816386651048496,-0.24201487790713752,0.04196887301587302,0.0010947096774193538,0.940186,0.02002,2.81995502510159,-0.41090008478378437,1.8794534173405122,-50.8556775,-117.503817,85.129771,61.43039300149005,-0.7244851543843891,3.9955167777777776,0.03472051612903219,117.503817,0.725191,2.455889010318031,0.9817178719441906,-0.2406447215189984,-4.744990453125,-18.816794,8.748092,7.314643907606262,-0.4649087405644128,2.2280382857142857,0.12780103225806455,18.816794,0.10687,2.7493351661297942,-0.045456024781657715,-0.8782860738186415,-2.835520046875,-11.709924,4.480916,5.272827180466704,-0.38265969958472823,0.5161759523809525,0.03398179032258066,11.709924,0.160305,2.5602344731048725,-0.14233568494885468,-1.5386043488079117,73.88283809845807,7.943957989746609,117.5387183828485,31.113870691770156,14.795989421716172,3.7271916339098667,0.022614724757461298,117.5387183828485,7.943957989746609,1.0415617689832235,0.9561755234045682,1.586658881432616,0.11308861473096596,1.6593803570532137,0.024770842547825512,0.0004341126108120541,1.586658881432616,0.9561755234045682,84.59148371875,11.511451,122.89313,29.01960377544777,10.67572888943366,4.258936158730161,0.05688253225806414,122.89313,11.511451,2.520816334053931,-0.8972052448986009,0.05374502653390101,1.283916390625,0.989258,2.254394,0.23337593605533144,2.278873660865012,0.0489598253968254,-0.0014294193548387067,2.254394,0.989258,2.7598016854625227,2.43984651287415,7.442737410140072
0.058048234375,-0.356934,0.461426,0.14693619975541514,-1.2927487994979465,0.043104396825396823,-0.0012718870967741917,0.461426,0.009766,2.486721562006782,-0.24012069174671685,1.2244361529236034,-1.08253096875,-1.606201,-0.980225,0.13270848185665246,0.6102754263009424,0.03240088888888888,-0.00225632258064516,1.606201,0.980225,2.8309745298377287,-2.626666088842441,6.1372017562370935,-0.18921659375,-1.629883,0.331299,0.29166643886819515,-0.2032655104691564,0.08423631746031747,-0.012277903225806451,1.629883,0.013672,3.2958857247417,-3.08341154908801,11.398860074242267,40.60090646875,17.70229,93.29771,23.956226671098978,5.270375188746766,1.9183327777777774,-0.0539276129032257,93.29771,17.70229,2.3896245456662943,0.8051093159897817,-0.6316727548275307,-0.5837308906250003,-121.625954,108.625954,50.52063991164051,-0.8931149185477304,12.375257476190475,-0.5528194999999999,121.625954,0.870229,2.954240284152394,-0.4714236788680252,0.3416979640231119,-12.952409359375,-27.557252,10.854962,10.42561946952859,-0.3939058219593159,1.58318192063492,-0.03164245161290323,27.557252,0.290076,2.580122069467395,0.5811508040731174,-0.5641634377334923,60.55068787463263,20.728836618429,137.54133920910746,36.82010598969898,6.635265728652912,6.112554873955331,-0.04993019200114465,137.54133920910746,20.728836618429,1.1321557908609183,0.9906742041524045,2.2371226718266928,0.22894861190865418,2.258182016297394,0.05282292482763606,-0.008740003133096304,2.2371226718266928,0.9906742041524045,92.00465171875,23.297711,204.21374,53.48352816367229,8.765399313263007,11.165757825396827,-0.431297693548387,204.21374,23.297711,2.6621154765766097,0.6884131911558796,-0.7083306825233846,1.431205734375,1.156495,3.477051,0.4216972927530054,3.006542181332388,0.10263588888888886,-0.015869112903225804,3.477051,1.156495,2.664235109244684,3.4167670628301288,11.210840433030794
0.11494453125,-0.052734,0.306641,0.10598721743187424,-5.814863276064777,0.016016428571428574,-0.00031503225806451635,0.306641,0.004883,2.7588731987771147,0.17923139413487885,-1.230432705995099,-1.108333578125,-1.685547,-0.773682,0.2692299194245672,0.4590094491580478,0.030982603174603173,-0.0005867258064516128,1.685547,0.773682,2.5893807573257726,-0.8187160882214175,-0.5051126591990012,-0.3922080625,-0.951172,-0.035156,0.3040101650760243,0.03696071793534713,0.031234476190476188,0.0006654677419354846,0.951172,0.035156,2.575674768858031,-0.5628944139163117,-1.1136956475098296,-47.379651703125,-170.519084,112.977099,114.3104616219462,-0.6625481227661298,5.273233952380951,-0.04851022580645178,170.519084,1.045802,2.1628841881511818,0.23217412852183578,-1.7111823231688903,-14.613668875,-87.877863,56.122137,50.43653850895767,-0.6386379354718719,4.134617714285715,0.16670770967741938,87.877863,2.045802,2.5482079048386295,0.011861409097814659,-1.555131577033084,-12.992962859375,-54.541985,46.465649,37.58169166962041,-0.8519244211592226,2.072579698412698,-0.01859148387096767,54.541985,1.099237,2.348323967796706,0.543669643166809,-1.38664537013005,129.66939844914586,16.999986505765264,196.3179088176554,51.09769955904701,11.548121450042176,5.735922100379341,-0.052094009517563815,196.3179088176554,16.999986505765264,1.2293589998521008,0.9443212315097019,1.7084226191086325,0.24170234085331116,1.809154090899078,0.024274066391860364,-0.0005166599432264987,1.7084226191086325,0.9443212315097019,197.154938,20.435115000000003,307.312977,76.53719810967674,15.038475535860696,9.953713777777777,-0.08335387096774173,307.312977,20.435115000000003,2.6321785066131635,-0.531545840355761,-0.45136447488633147,1.625205984375,1.030273,2.3325199999999997,0.42354623423294047,2.2639824590181434,0.03908573015873015,-0.00017329032258064656,2.3325199999999997,1.030273,2.6039686476318296,0.08163952565402256,-1.5042963052096172
-0.05691153125,-0.562256,0.346436,0.11838115796677512,-0.616153495916451,0.06588315873015875,0.0010474354838709674,0.562256,0.0,2.709634714829856,-0.49292140122437145,5.640565716138926,-1.01374815625,-1.445801,-0.717041,0.18063388004594091,0.49594722925215856,0.04993642857142856,1.5758064516129124e-05,1.445801,0.717041,2.6453314743760794,-0.43109670211440027,-0.772295848301209,-0.29777521875,-2.0,0.088623,0.3154467321380181,-0.0443115,0.12074884126984128,0.006414596774193547,2.0,0.001953,2.261872194419858,-2.607919618603895,11.220358508364427,-34.365458015625,-155.343511,85.977099,85.69730331202486,-0.5534643735456706,9.204531650793651,-0.011450354838709658,155.343511,1.40458,2.541293702657064,-0.0910473281498054,-1.5264485689505924,-6.610090640625,-103.251908,114.282443,41.88709678393621,-1.1068312945848904,13.330667666666661,0.07350406451612866,114.282443,0.40458,2.6357856137258233,0.2773255182739176,0.7202148924886238,-8.408874078125,-34.748092,10.282443,10.98157914658711,-0.29591388787620343,2.6371016825396825,0.1222605322580645,34.748092,0.40458,2.5627611467191733,-0.40057035522100687,-0.4047419515798967,90.70081080538078,8.094350535681537,156.88074543358624,46.66778329841572,19.38151118388364,9.40591930881423,0.09762400473922682,156.88074543358624,8.094350535681537,1.0963383147676455,0.7536716905722278,2.3952718436238087,0.24995721641456076,3.1781369442246006,0.07857876805941903,-0.0006449842225651266,2.3952718436238087,0.7536716905722278,120.694298609375,11.763359999999999,208.87022900000002,58.757559210739906,17.756000751485974,14.813158841269843,0.23380943548387126,208.87022900000002,11.763359999999999,2.691430611208111,-0.1929944374979961,-1.2619501019915902,1.40971753125,0.801758,3.754395,0.43811707744935136,4.6827035090388875,0.1507548095238095,0.003807822580645163,3.754395,0.801758,2.565359580023273,2.432670588103543,11.065477696020684
-0.06758115625,-1.092041,0.424561,0.27053236371673844,-0.3887775275836713,0.10114784126984129,0.00021658064516129113,1.092041,0.009521,2.452332866507952,-0.6198243799771508,1.5357895019640289,-1.060935984375,-1.662109,-0.697266,0.2044844461086583,0.41950678324947405,0.03706669841269842,0.000630032258064515,1.662109,0.697266,2.6315484393180983,-0.5919854903762637,0.7603702759629667,-0.137981375,-1.972168,0.158203,0.38046689229780045,-0.08021781105869277,0.09331596825396823,0.0006969838709677419,1.972168,0.000488,2.476211119665755,-3.6765274866497992,14.567621186119268,-46.533754796875,-191.21374,75.641221,95.52069032197983,-0.39558465306938717,5.078395682539683,-5.730183352904034e-17,191.21374,0.076336,2.5426953261700436,-0.3237261046319453,-1.461985041745846,-18.95229009375,-97.763359,80.015267,56.47773885368428,-0.8184586517736159,10.748333968253968,0.1990889032258064,97.763359,2.366412,2.7082291920713795,0.4291671029016707,-1.0602465002473154,-5.84947515625,-40.755725,38.984733,23.68265045219908,-0.9565461784816734,4.012601460317462,0.04506279032258063,40.755725,0.015267,2.7335205972855228,0.1955789714087694,-0.9074263175922606,108.31916702966107,18.105901209704587,208.44123405279097,59.62328651916198,11.512336869543311,7.345048059563921,0.1112018233222566,208.44123405279097,18.105901209704587,1.14124490055842,0.7171458239047341,2.5472885951791957,0.3226073437181805,3.5519813547956716,0.06949951633088357,0.0008667275775100352,2.5472885951791957,0.7171458239047341,156.429269921875,28.549618,302.778626,86.25898741125249,10.605347714284653,12.083848285714286,0.24415169354838712,302.778626,28.549618,2.6068656218256883,0.4403116271827829,-1.2412126375644412,1.4870337656250001,0.806396,4.250244,0.5516869356951946,5.270666025129094,0.15380085714285713,0.00154359677419355,4.250244,0.806396,2.84331380849926,2.81681150965371,10.008047983640347
0.054634125,-1.019287,0.489502,0.2740769497946627,-0.48023961847840696,0.11172723809523807,0.000496161290322584,1.019287,0.000732,2.395316192523502,-1.736420935919236,4.441665560526326,-1.031185171875,-1.80542,0.002197,0.2756447105743277,-0.0012168913604590622,0.09866376190476192,0.0002638387096774173,1.80542,0.002197,2.295770403051093,0.15377625598097128,2.6916333317550167,-0.004276265625000003,-1.989502,0.298584,0.36382603442004696,-0.15007976870593748,0.11698601587301585,0.00013388709677419067,1.989502,0.004639,2.8151341313341023,-3.6693839227811518,14.927324577025889,-50.23389790625,-201.923664,68.496183,100.74867692978306,-0.33921820574729666,12.27323392063492,-0.024624467741935104,201.923664,1.175573,2.4413823311289664,-0.35791212291022195,-1.5229514424813777,-10.76669846875,-139.175573,103.687023,66.28644394096291,-0.7450087739175321,17.190960888888885,0.17274070967741906,139.175573,0.78626,2.7164415986883306,0.031182391724524004,-0.996884081868934,-0.5663167499999999,-38.160305,14.854962,14.52802322449058,-0.38927786347619603,2.185508285714286,-0.0018468387096773646,38.160305,0.458015,2.276113871398368,-1.268245681387427,0.2873699432146708,119.23885904140613,9.193990219875209,208.93244910059178,54.710623010708424,22.724893555893694,10.620777902334698,0.08569136655068589,208.93244910059178,9.193990219875209,1.1087783006798868,0.6230700078699022,2.8734309758149754,0.3432729063141303,4.611730527101461,0.12035545797115728,4.366874139926485e-05,2.8734309758149754,0.6230700078699022,156.0199188125,13.267175,260.458015,62.962864342248615,19.631761471451156,14.63334534920635,0.14626940322580587,260.458015,13.267175,2.6320378061037277,-0.1193085862675249,-0.8407842527304488,1.41971584375,0.630127,4.814209,0.5852901350176605,7.6400614479303375,0.21289444444444444,0.00038982258064516125,4.814209,0.630127,3.0335525383526125,3.864688604049262,17.2914911068733
0.048492375,-0.169434,0.177246,0.10099242441187012,-1.0461064485286304,0.020062126984126988,0.0006497258064516131,0.177246,0.001709,2.572731627669065,-0.7415143477492666,-0.45301366200946713,-1.081726015625,-1.57959,-0.628174,0.3016418526541348,0.3976816768908388,0.034733873015873024,-0.00012206451612903257,1.57959,0.628174,2.7129600592113934,0.036607375731775894,-1.422299219448605,0.003749843749999999,-0.355957,0.344727,0.19816935190613064,-0.96845124551561,0.031312,-3.935483870967872e-06,0.355957,0.006836,2.7480488643074215,-0.22692163973066293,-1.0111706713670556,-42.065124078125,-250.137405,117.885496,143.07370269411345,-0.47128295746092036,6.168665936507936,-0.060329967741935546,250.137405,5.389313,2.415174693254743,-0.2847674818969585,-1.565764437571856,-5.124999984375,-62.007634,54.931298,34.70171621710161,-0.8858795999215193,4.738277015873015,0.25991135483870975,62.007634,1.152672,2.662707019541156,-0.19449657980744683,-1.2053594782813088,13.59601621875,-2.129771,23.374046,7.606119836699574,-10.974910448118601,1.291166857142857,0.005048016129032292,23.374046,0.007634,2.6616840574649023,-0.5773062422599148,-0.710281392253473,137.84903134482565,38.235362383915415,256.0683287704692,66.63479834644161,6.697159718255743,5.288155951893205,-0.0001337647543581874,256.0683287704692,38.235362383915415,1.10914611579482,0.6977640753693185,1.5827952285592728,0.2860664290262659,2.268381655678558,0.03351428109444967,-0.00010490250451588417,1.5827952285592728,0.6977640753693185,173.1473045,60.534351,307.98473399999995,67.71887835063977,5.087768001345219,7.28135225396825,0.2226052741935478,307.98473399999995,60.534351,2.6029614918933284,0.5035626280034977,-0.5495075578609483,1.344860078125,0.9421390000000001,1.7980960000000001,0.2833216066834512,1.9085251751599286,0.04408492063492064,-0.0007363387096774184,1.7980960000000001,0.9421390000000001,2.650096736313303,0.016895357205475612,-1.4094687498966352
0.064727765625,-0.213623,0.209717,0.10946067852331935,-0.9817154519878477,0.022414428571428568,0.0007205967741935485,0.213623,0.007568,2.789194162573833,-1.1500112481896294,0.4839462677625619,-1.13367084375,-1.43335,-0.740479,0.22097966454241164,0.5166072487529215,0.02787853968253968,0.0003347096774193565,1.43335,0.740479,2.6754061431838654,0.4219243582317503,-1.2651487431487862,-0.051185640625,-0.506592,0.308105,0.2497946349726566,-0.608191601920283,0.029758031746031744,0.0005473387096774192,0.506592,0.002686,2.589030284049802,-0.6232853994354312,-1.058934848792665,-61.255009531249996,-214.587786,99.274809,126.99170739189334,-0.46263028688874214,6.169392920634918,0.22703767741935457,214.587786,3.099237,2.3029558750802357,0.10778340434420172,-1.721587474491135,-15.0520038125,-84.427481,48.992366,40.238154481298075,-0.5802893254626417,5.659881253968253,0.14626940322580648,84.427481,0.152672,2.7183163878613468,-0.16977207827618634,-1.206535163217146,10.588978984375,0.557252,23.374046,5.834058965272397,41.94519894051525,0.9326305396825398,0.014035967741935478,23.374046,0.557252,2.7267319870545976,0.48219596881580284,-0.201540675814178,132.86273807668726,18.288694762221414,230.34671713348402,63.270318719295474,12.595033168212012,6.159131684299364,0.258561915570947,230.34671713348402,18.288694762221414,1.1752608439416843,0.8996024159243905,1.4414957970074,0.1804882943012906,1.6023698597187344,0.02449964127995246,9.517799654961708e-05,1.4414957970074,0.8996024159243905,172.084923609375,26.190839,305.664122,78.97543546595276,11.670650260573936,9.11547319047619,0.41763117741935496,305.664122,26.190839,2.5705308099617423,0.2157740445788413,-0.8702928248611004,1.4506874375,1.09668,1.666015,0.11872303452739427,1.519144144144144,0.032269190476190465,-0.00021658064516128308,1.666015,1.09668,2.6020798809684815,-0.685932442299542,0.228778317099247
0.015300796875000001,-1.5,1.329102,0.325404180812167,-0.886068,0.1448993650793651,0.0016499354838709686,1.5,0.001709,2.9946110978018523,-0.7169851441481705,10.587274026915667,-1.056549078125,-1.700928,-0.835693,0.19917356052578275,0.4913159169582722,0.07612538095238096,0.0017365645161290316,1.700928,0.835693,2.1076429151181144,-1.4465415108582849,2.1914688728341627,-0.173851015625,-1.959961,0.415283,0.3590406147884476,-0.21188329767786196,0.12105112698412697,-0.0002795967741935482,1.959961,0.001465,2.874673459246008,-2.394284921757286,8.010906494783764,-18.464098265625,-136.51145,104.343511,73.57790444171397,-0.7643572095967043,9.569247539682541,0.15882788709677423,136.51145,1.48855,2.7224951922921394,-0.16250243251807908,-1.213763924549881,-5.728769015625001,-195.770992,112.007634,43.41033180640324,-0.5721360087913331,15.183933126984126,0.27739474193548397,195.770992,1.80916,2.6726671663920825,-1.783777277179928,7.208206428093547,-3.3413645,-67.381679,20.267176,19.429744347667533,-0.3007817006162758,3.408821063492064,0.07448903225806458,67.381679,0.076336,2.209492490534914,-1.262247438714962,1.693928216503405,75.58634226908913,13.625594940571549,226.3028909976493,47.56798918233825,16.608661272016107,10.93458255804841,0.08061944470954441,226.3028909976493,13.625594940571549,1.1505829319338945,0.8430089216247952,2.4090269318679276,0.3075230238792767,2.857652950131093,0.08219484681144819,0.001879418867700553,2.4090269318679276,0.8430089216247952,103.78804865625,18.152672,354.51145,68.00870358200766,19.529436217433997,16.179449888888886,0.0054173709677416484,354.51145,18.152672,2.066941300545318,1.27202749597996,2.1105743394289,1.4504814531249999,0.9331060000000001,4.027099,0.5678193005858809,4.315800134175538,0.16590701587301582,0.0037369677419354856,4.027099,0.9331060000000001,2.314854128602693,2.4502789173030317,6.9553482536632885
-0.034412390625,-0.239746,0.117676,0.10369551413061824,-0.4908361349094459,0.01664026984126984,-0.00044103225806451616,0.239746,0.004395,2.7254698646926334,-0.46650209416609495,-0.8375211984146471,-1.10214990625,-1.378418,-0.79541,0.17967967319302716,0.577045569631273,0.02085661904761905,-0.0005591612903225794,1.378418,0.79541,2.608197148113303,0.33866000160103077,-1.0600806011960051,-0.326721171875,-0.881592,0.093506,0.30873295779540116,-0.10606493706839445,0.03653584126984127,-7.088709677419292e-05,0.881592,0.013428,2.8336878339919096,-0.5330498084098393,-1.1955472751651168,-36.413406515625,-165.335878,95.312977,103.53599809405581,-0.5764809075499028,5.4137889047619066,0.011327258064515837,165.335878,0.648855,2.3546852988075138,0.002326442515679593,-1.7666714951435425,2.5273139531249997,-41.847328,55.343511,29.7670039978828,-1.3225100297921053,3.950684571428572,0.0419847258064516,55.343511,0.465649,2.720165082093752,0.04668989150600631,-1.2392331390001563,10.894799640625,-7.030534,32.870229,14.623943965604912,-4.675353109735335,0.9637707301587302,-0.031026838709677405,32.870229,0.076336,2.7228286292636237,0.2937311400502623,-1.5210856702401467,104.93193408302568,4.654680410314009,172.10157484964438,45.915197950739966,36.97387568613636,5.437883310199452,0.02609918351220867,172.10157484964438,4.654680410314009,1.2050463863418248,1.0893672870882436,1.3871236123118227,0.08262590996820082,1.2733296003586159,0.015446251967942944,-0.000519762870502017,1.3871236123118227,1.0893672870882436,139.295205109375,7.106871,235.34351099999998,61.99113319995306,33.11492652673729,7.539440174603173,0.11733562903225773,235.34351099999998,7.106871,2.5372954714871527,-0.00012240430603880094,-0.902366044893705,1.527317,1.181641,1.9130859999999998,0.2108775193298195,1.6190078035545483,0.03643501587301588,4.7241935483873895e-05,1.9130859999999998,1.181641,2.7395064148802026,0.12797925721755113,-0.9319871628950152
0.0784645,-0.166016,0.586914,0.14196071898463647,-3.535285755589823,0.03168406349206349,0.001685354838709678,0.586914,0.006348,3.0040840349262274,1.1416896403688852,1.9523926256258672,-1.081047078125,-1.63623,-0.744385,0.24642472780587618,0.4549390978040984,0.031176380952380962,-0.0011025645161290296,1.63623,0.744385,2.6206486568836693,-0.7347939460643227,-0.3874075756422388,-0.16878121875000002,-0.690674,0.684082,0.3578943146111698,-0.9904556997946933,0.040996222222222226,3.93548387096653e-06,0.690674,0.021484,2.620648656883669,0.488149561225897,-0.4334147234278678,-34.35448475,-154.984733,113.580153,103.6614558601473,-0.7328473637464665,5.336120206349206,0.06390051612903228,154.984733,5.70229,2.5103685012246353,0.2962351339486713,-1.624028356187769,-30.76300090625,-109.458015,34.625954,46.398396717456464,-0.3163400505664204,4.462862,0.03952227419354816,109.458015,2.374046,2.6717869048625884,-0.23720978647890947,-1.3146273873257326,8.983778578125,-16.625954,29.839695,14.21845929687199,-1.7947658823066635,1.6802374761904761,0.07436591935483869,29.839695,0.244275,2.5428317051309723,-0.4741060436763431,-1.0346981396706163,114.70274730496267,37.61896724831799,183.585470545133,44.46857110136616,4.880130529190469,4.756677908600932,0.09637105930501262,183.585470545133,37.61896724831799,1.1669869259353352,0.9143602229690441,1.6570295450827062,0.21885546106276763,1.812228379425912,0.03104386285000811,-0.0007459218633433598,1.6570295450827062,0.9143602229690441,160.335042890625,55.58778699999999,272.89313,70.31179067329681,4.909228172727942,7.217981333333334,0.22703764516129038,272.89313,55.58778699999999,2.6753823982919553,0.2374214088711416,-1.333264057739533,1.522003203125,1.046386,2.334717,0.32484821127604174,2.23121964552278,0.06504222222222222,-4.330645161291117e-05,2.334717,1.046386,2.5645094697016404,0.4284319467890494,-0.6581787094853921
-0.006210234375,-0.219238,0.208252,0.10878919343168066,-0.9498900738010746,0.02792893650793651,0.00014569354838709698,0.219238,0.00415,2.882879965605713,-0.002001548828815953,-0.5244901061725358,-1.07024,-1.450684,-0.832031,0.16627101152626755,0.5735439282435044,0.0200544126984127,-0.0005473387096774165,1.450684,0.832031,2.5079152107243914,-0.7896868783094101,-0.41764571802901207,-0.21144484375,-0.700439,0.151611,0.26191461513716907,-0.21645139690965237,0.03316436507936507,-2.758064516129015e-05,0.700439,0.001953,2.558266979264947,-0.5416319867170031,-0.9200439576648742,-29.11295321875,-117.557252,86.351145,81.89487604167077,-0.7345454536484062,3.7465164444444454,0.045309048387096824,117.557252,6.137405,2.1163394575048895,0.2828510703887955,-1.7108723436328084,3.1374045,-46.320611,60.0,28.304716978058515,-1.2953197012016961,5.251544888888889,-0.04013790322580655,60.0,0.244275,2.7383978600181944,0.14502978750013087,-0.6791618230296308,4.409112578125,-12.435115,23.580153,11.490354894724538,-1.896255322126092,1.0832424603174602,-0.0038168064516129144,23.580153,0.274809,2.631176444785478,0.313607465982674,-1.2861386209465526,87.1928793899815,15.023808003326222,124.92531395665824,28.415619724708378,8.315156445622854,3.721981370869805,0.03517342994890183,124.92531395665824,15.023808003326222,1.1303887054851376,0.9241679448341626,1.4644293577844578,0.1381020309091521,1.5845922442670768,0.01742411387140138,-0.0005354196884367728,1.4644293577844578,0.9241679448341626,114.271588796875,20.900763,175.381679,37.379302228194504,8.391161557116359,6.222585730158731,-0.04026101612903252,175.381679,20.900763,2.7244938749834913,-0.38345008246072826,-0.22366357948721616,1.409797578125,1.072509,1.764161,0.24048757929308492,1.64489155801956,0.04263558730158729,-0.00042922580645160703,1.764161,1.072509,2.5797728261581594,-0.15634941078309086,-1.4814476165964496
0.1451110625,-0.025635,0.303711,0.09185268332824692,-11.847513165593915,0.026250968253968252,-0.0007599838709677419,0.303711,0.001465,2.6667427437799236,-0.0428866077992306,-0.8720925748249981,-1.002666484375,-1.32959,0.5,0.3160332625551772,-0.3760557765927842,0.08419368253968254,-0.00033864516129031926,1.32959,0.047852,2.8409677264886657,3.822887050014145,14.25875035043508,-0.088226390625,-0.630127,1.016113,0.3165317905025493,-1.6125527076287798,0.0794270476190476,0.0007599838709677401,1.016113,0.004395,2.20387954061639,0.37243284492433426,0.9644894090695764,-51.99856875,-123.122137,61.763359,61.21885656111781,-0.5016430067324125,4.765903301587301,0.013420338709677468,123.122137,0.427481,2.5710150346031972,0.6829877075469964,-1.0289894322491058,-28.718988562499998,-71.557252,33.282443,32.960727830878845,-0.4651162819947306,4.9584393492063485,-0.1571041612903226,71.557252,0.099237,2.5713757781392013,0.2460730915195381,-1.3125469192181023,-5.389670828125,-24.938931,35.427481,18.741223770946604,-1.4205693499853702,2.9920029047619043,-0.05749814516129053,35.427481,0.740458,2.3042690795069443,0.7464872455506674,-0.9399589298516338,85.25622884042146,17.72792727721707,140.4733796961336,37.6237028500851,7.923846792662673,4.885713263837106,0.004841556382662625,140.4733796961336,17.72792727721707,1.104927215918814,0.516143677447472,1.3521228812907502,0.13733220382103262,2.6196637493992276,0.0683608495617677,-0.00038258650609231874,1.3521228812907502,0.516143677447472,126.023020046875,22.061068000000002,206.167939,58.17355910461112,9.345329020335733,8.383618222222225,-0.1066239999999997,206.167939,22.061068000000002,2.62171643946498,-0.08840320654848807,-1.387793339537659,1.42902765625,0.563965,1.9011230000000001,0.2669596038259269,3.370994653923559,0.102159253968254,-0.00040951612903225484,1.9011230000000001,0.563965,2.0162827701000765,-0.14119179812063518,0.02385005158986342
0.144710546875,0.014893,0.306641,0.0715397639757922,20.589605855099713,0.020674523809523813,-0.00012206451612903189,0.306641,0.014893,2.6192065812944803,0.04435317991220773,-0.6696420617055616,-1.060455328125,-1.282227,-0.87915,0.10389608741461452,0.6856430257668884,0.029095365079365058,-0.000141758064516128,1.282227,0.87915,2.60640038626711,-0.5280812886289313,-0.6765415792612113,-0.166812875,-0.757324,0.176514,0.2656703506471285,-0.2330759357949834,0.03933373015873015,8.269354838709733e-05,0.757324,0.00415,2.4917913006133476,-0.8452257500008828,-0.5564453408322909,-53.568463734375,-118.259542,57.862595,64.08184114993664,-0.4892847885374019,4.831576317460317,-0.02376262903225804,118.259542,0.053435,2.2457003599564946,0.7325886144969141,-1.1408347111621027,-13.9252146875,-54.10687,40.580153,28.400145600533964,-0.7500000092409708,4.333090968253967,-0.015390306451612875,54.10687,0.083969,2.6401576650755234,0.34440470163068715,-1.113192846341017,-8.55176525,-22.80916,29.030534,17.44089398130986,-1.2727576990998355,1.1845389047619048,0.0023393225806451613,29.030534,1.78626,1.7368459416670592,1.055525716605986,-0.6253112572661608,85.52164143008473,32.88958803234125,127.34299165623031,31.202597559022614,3.8718329804256104,3.993928868916662,-0.021821366459914403,127.34299165623031,32.88958803234125,1.1166689665110603,0.9551040636417584,1.3549850254246354,0.1082042307706219,1.4186778980482537,0.029332112953827916,-0.00013894003270058377,1.3549850254246354,0.9551040636417584,122.206941671875,38.625954,181.564885,44.014744960701435,4.700592896682888,5.897733999999999,-0.06956416129032236,181.564885,38.625954,2.5590322393083227,-0.1913782988883686,-1.209624221080169,1.42091375,1.0729980000000001,2.019287,0.2525033429240285,1.881911243077806,0.05233523809523806,-0.0001811290322580657,2.019287,1.0729980000000001,2.584185396160253,0.5820649905886938,-0.5827104441696522
0.176281015625,0.037354,0.3479,0.08844569618868595,9.31359426032018,0.020999968253968253,-5.1193548387096715e-05,0.3479,0.037354,2.7067388913262773,0.4843419646759473,-1.014690015661418,-1.097381625,-1.379395,-0.908936,0.12780547222175337,0.658938157670573,0.036411777777777786,0.0007520967741935494,1.379395,0.908936,2.6465694961193074,-0.35767207335644147,-0.5875879223054059,-0.13995740625,-0.645996,0.254395,0.2950544025061764,-0.39380274800463155,0.03986468253968254,-0.0002677580645161309,0.645996,0.0,2.7952054312789736,-0.5005486854469612,-1.1010281065191816,-62.275524796875004,-157.832061,81.496183,84.08759621859404,-0.5163474549065161,5.844056714285713,0.19108593548387082,157.832061,4.229008,2.476602742796891,0.5943017597732083,-1.2564898301634646,-26.14563453125,-85.251908,54.129771,40.40652439099204,-0.634939114793771,5.81122015873016,-0.1015759838709677,85.251908,0.206107,2.73636487473803,0.3726469241758995,-0.9207559662442679,-7.8916984687500005,-30.358779,38.221374,21.277959226718874,-1.2589891708095375,1.452320365079365,0.008741693548387103,38.221374,2.083969,2.1835168062831896,0.8579938577125532,-0.8650671271346067,109.05484587440073,35.96134540454749,170.46472727402482,42.094403343532704,4.740221072275809,5.378110903087719,0.17631218323414452,170.46472727402482,35.96134540454749,1.1638323894201765,0.9481819091999172,1.3967703639360336,0.10018362395838669,1.4731037898778712,0.034998430489344666,0.0005967249054118871,1.3967703639360336,0.9481819091999172,156.760138296875,48.007633000000006,248.465649,61.760394965133955,5.175544668073929,8.382769936507934,0.06648609677419366,248.465649,48.007633000000006,2.7187628802304338,0.002835314254693549,-1.2516195798166303,1.520874109375,1.233398,2.0146479999999998,0.22220507812872808,1.6334127345755383,0.04874277777777778,-0.0005513064516129035,2.0146479999999998,1.233398,2.5188139508221545,0.6667628905056754,-0.8199621369635839
0.180107046875,0.074707,0.272461,0.06254794671275704,3.647061185698797,0.01481893650793651,-0.0006772903225806449,0.272461,0.074707,2.7067905943991035,-0.23334896535641822,-1.302345351095474,-1.100353203125,-1.368164,-0.938232,0.11442665015150343,0.6857598942816797,0.029541158730158727,-0.0001299516129032219,1.368164,0.938232,2.5485526765624273,-0.6625667840980375,-0.7270133926376361,-0.155056046875,-0.575928,0.241455,0.27111490531972154,-0.4192451139725799,0.03417579365079366,-8.662903225806441e-05,0.575928,0.013428,2.640669252967556,-0.11032360099976815,-1.345523710227761,-49.86009065625,-145.396947,76.145038,83.67279683441701,-0.5237045176746387,4.988731412698412,-0.07030290322580653,145.396947,2.717557,2.3947052547530685,0.31162682787490126,-1.5515916926225242,-21.9004055625,-65.526718,36.290076,31.944773962076976,-0.5538210535739024,3.2660850476190473,0.021915790322580706,65.526718,0.29771,2.587389416495415,0.1838117418982992,-1.3416654322948922,-9.442509546875,-38.671756,31.198473,25.62921637746927,-0.8067508752382487,1.3839815873015875,-0.007141096774193519,38.671756,0.740458,2.472292277647097,0.40082746228823735,-1.4870673111097137,97.13348051883457,17.186775212120132,160.8756307411274,46.87318251536271,9.360431422159856,4.7240354800770055,-0.050996241088128495,160.8756307411274,17.186775212120132,1.1597213643925528,1.0176191631283287,1.3917224511938435,0.10761128086565541,1.3676260251580363,0.02964712281691058,-5.690381403432265e-05,1.3917224511938435,1.0176191631283287,143.168654546875,21.908397,241.992366,71.32718330729014,11.045644553547207,6.908639222222219,-0.01588282258064471,241.992366,21.908397,2.5017488198688302,0.0365515807575075,-1.4437931226080785,1.535789421875,1.2224110000000001,1.975831,0.20755366346269932,1.6163393490405433,0.049742809523809516,-0.0002559354838709748,1.975831,1.2224110000000001,2.700508550441027,0.32875791594996934,-1.0799307964705696
0.065296171875,-0.455566,0.219238,0.10599927649566723,-0.48124311296277594,0.043232126984126984,-0.00015751612903225758,0.455566,0.00293,2.7354874578518777,-2.3837096377215103,8.423287693334219,-1.026481625,-1.288818,-0.827393,0.1181152818064044,0.6419781536260357,0.027820349206349192,-0.0008978064516129057,1.288818,0.827393,2.627620407472074,-0.3205509784754598,-0.6536922931822002,-0.195354484375,-1.219482,0.475586,0.27622502021945416,-0.3899901761567617,0.08814638095238093,0.000752112903225807,1.219482,0.000244,2.930604348992728,-1.238256513474862,3.119478895342941,-26.636211765625,-95.847328,75.244275,47.74751481990294,-0.785043011319001,6.245607714285716,0.28650579032258067,95.847328,1.259542,2.635686370344098,0.2325233963611987,-1.1928300617662015,-6.4317748125000005,-35.152672,31.076336,14.219766623270404,-0.8840390852792072,5.396219587301586,-0.09738980645161288,35.152672,0.007634,2.653687926536988,-0.16328359865883688,-0.25479357568206806,2.501550515625,-22.396947,16.312977,11.626238096929894,-0.7283571729664762,1.3019508095238097,-0.04530903225806448,22.396947,0.343511,2.655028124459133,-0.6102032507730011,-0.8650056336491465,52.00833351365874,5.462583244303925,97.58559967580682,25.26907455785113,17.864368433664346,5.695493042817671,0.29159589938479435,97.58559967580682,5.462583244303925,1.0796492638370339,0.8370090518381508,1.8318647782530237,0.17559129136745336,2.1885841906130836,0.04382965014064192,0.00015350950452827191,1.8318647782530237,0.8370090518381508,69.77111171875,8.419848,124.847328,32.405747470923345,14.827741308394167,8.221131698412696,0.3284905322580646,124.847328,8.419848,2.7588294258057466,0.011180607901571637,-0.9788158088354009,1.36353296875,0.974854,2.9638660000000003,0.3424551414252707,3.040317832208721,0.10775107936507937,0.001492403225806453,2.9638660000000003,0.974854,2.2598312790382344,2.3089417424214935,7.173336081869808
0.02247234375,-0.171631,0.281738,0.10718970202257996,-1.6415332894407186,0.02237952380952381,-0.0006221612903225806,0.281738,0.001709,2.6194139011123685,0.17377784651712222,-0.3930876351890791,-1.0626716875,-1.339111,-0.948486,0.09882265976555606,0.7082952794801926,0.01747736507936507,-0.000984435483870967,1.339111,0.948486,2.520665489697902,-1.491811592852023,1.4956325882385357,-0.23264696875,-0.73877,0.211914,0.2748216849120603,-0.2868470565940685,0.035857666666666656,-0.000421354838709679,0.73877,0.004639,2.697451951468213,-0.39856145983724756,-1.120889189044565,-56.954317734375,-109.099237,54.748092,55.98399702810587,-0.5018192015403371,3.58487826984127,0.03373554838709672,109.099237,4.80916,2.167396833513643,1.0530059571687418,-0.4976672473267514,-4.323711828125,-27.938931,25.083969,12.066669291873646,-0.8978142005504792,2.6831455079365076,-0.013420322580645159,27.938931,0.465649,2.5148178768749103,0.3047837314192927,-0.5498884738219858,9.03232340625,-8.290076,18.770992,8.525280734711544,-2.2642726073922606,0.816188063492064,-0.025240096774193563,18.770992,0.236641,2.5220666186162397,-0.6960159637695307,-1.0286243063911995,76.8835735525616,11.090649164889584,110.02953903775153,27.289822156646515,9.920928649161446,3.3613290154134634,0.004062161967853841,110.02953903775153,11.090649164889584,1.1249962736107757,0.9568384980538774,1.3837982227058974,0.11734372325803036,1.4462192162213552,0.016289600636842358,-0.0012261971026946814,1.3837982227058974,0.9568384980538774,96.09541984375,18.290076,130.007634,32.06555699607293,7.108096981116973,4.657942603174603,-0.03348925806451617,130.007634,18.290076,2.2559502243859235,-0.7270249601950054,-0.7724993921402326,1.42175671875,1.098633,1.876709,0.2851300170276806,1.7082219449078992,0.03413309523809526,-0.0023587258064516102,1.876709,1.098633,2.3503116685854843,0.36335124955862186,-1.5803238978270147
0.036056515625,-0.033203,0.278076,0.04124027726262476,-8.375026353040386,0.018275666666666662,0.0038550645161290324,0.278076,0.000732,2.569107586350441,3.0733481708972294,16.67625484021894,-0.994346640625,-1.197998,-0.846191,0.07787336572748044,0.7063375731845963,0.017051158730158743,0.0026028709677419376,1.197998,0.846191,2.3731798376057474,-0.2507515292805889,-0.042259368889529636,-0.20536040625,-0.679688,-0.077881,0.09794813286401445,0.11458345593860714,0.025409984126984128,0.007958209677419354,0.679688,0.077881,2.2702346489365333,-1.854788696614043,6.591116881872521,-34.65040553125,-69.526718,51.938931,37.66253371817319,-0.7470355640834362,4.247546365079365,0.31913322580645154,69.526718,0.122137,2.2600273994329494,0.9761395093546937,-0.47025296692412777,-13.129890203125,-61.419847,33.465649,25.188243980000795,-0.5448670199390109,4.888525380952381,0.41800048387096767,61.419847,2.48855,2.79475611260937,0.12448500783076387,-0.5604981228638999,-9.906011421875,-20.198473,20.564885,9.630057985696704,-1.018140579240817,1.2370046825396823,0.06611670967741937,20.564885,2.251908,2.2387159767938685,1.7458487649453893,2.9952263947974727,57.81349940940113,29.080668773565264,82.76834050814146,15.643626493240584,2.846163585597421,3.1548379671400144,0.46322368631334304,82.76834050814146,29.080668773565264,1.0205258707134646,0.854471504033341,1.2471892215574187,0.08908869890096495,1.4596030595173062,0.021494938509313326,0.006235477469564579,1.2471892215574187,0.854471504033341,82.41626903125,43.740458000000004,126.610687,21.148546597023547,2.894589878322719,5.7946201111111115,0.5286874838709678,126.610687,43.740458000000004,2.8114966437001945,0.0632671983000983,-0.5839160765594142,1.23986053125,0.9807130000000001,1.965821,0.16374633783705408,2.0044814334061036,0.044189412698412714,0.01569195161290322,1.965821,0.9807130000000001,2.1124143747760926,1.1278553753556375,4.128790825969749
0.04845809375,-0.221436,0.568848,0.15190768093465007,-2.5689047851297895,0.05862095238095239,3.543548387096656e-05,0.568848,0.0,2.975661762216189,1.4515574907128288,2.117239037201875,-0.997531921875,-1.39502,0.144531,0.2402141514536167,-0.1036049662370432,0.05445112698412699,-0.0017522903225806472,1.39502,0.125,2.419653640540883,3.179854182352921,13.309867482078552,-0.17058565625,-0.972168,0.12207,0.1912730010289223,-0.1255647172093712,0.07190906349206348,-0.00139001612903226,0.972168,0.00293,2.4605359498739765,-2.318779239372091,6.625236369376971,-20.526836796875,-110.40458,72.916031,64.32752133654041,-0.6604438964398035,8.481279523809523,0.10576212903225804,110.40458,0.122137,2.6529858342708676,-0.037052918762412554,-1.468069192550688,-15.245228953125,-105.251908,86.503817,42.94449752743914,-0.8218740984724001,15.169635269841267,1.3138389516129032,105.251908,1.007634,3.1583885152542757,-0.15436337971067834,0.08038191905719305,-16.416388328125,-43.969466,41.19084,17.399877802675555,-0.9368055550185669,4.002423365079365,0.08458506451612904,43.969466,1.030534,2.2607505673122175,1.1260198431468453,1.3653526851990696,75.72401765651706,19.51116095404087,148.5047816433462,37.3870530261658,7.611273465128687,9.205081273222568,0.6789466166108656,148.5047816433462,19.51116095404087,1.0446324996261989,0.12600327440586612,1.494867263411705,0.2271498650835544,11.863717593533515,0.06027772627238886,-0.0018051337813415184,1.494867263411705,0.12600327440586612,111.15386448437499,29.221374,235.05343499999998,57.72849963381034,8.043887156024901,15.70834850793651,1.2246983387096775,235.05343499999998,29.221374,2.6926388857036607,0.4285549357105499,-0.7689103375601132,1.282539453125,0.140869,2.320801,0.3807638125535087,16.47488801652599,0.11019657142857145,-0.0031068709677419294,2.320801,0.140869,2.461778249411595,0.16577915619711034,1.7570165635934947
0.071170828125,0.008789,0.211426,0.046837511442017296,24.055751507566278,0.013668047619047618,-0.00011814516129032272,0.211426,0.008789,2.356387351306643,1.0839371840364624,0.9517158194187294,-1.099662765625,-1.371094,-0.937012,0.11709526671045181,0.6834046389233707,0.0165938253968254,-0.0005473548387096769,1.371094,0.937012,2.5949838572164747,-0.9958230199874955,0.2073208808016811,-0.1260490625,-0.501709,0.029785,0.15822519487831807,-0.05936708330924899,0.02324373015873015,-0.00014177419354838717,0.501709,0.001221,2.123948116682619,-1.1667991267678877,-0.1436980189835766,-58.058683234374996,-125.068702,100.206107,78.12144500818702,-0.8012084989896193,4.264267523809524,0.03607485483870977,125.068702,4.923664,2.0693124123377884,1.0540916720944682,-0.5528962050454975,-31.269680359375,-71.19084,16.068702,21.816555355493794,-0.22571305521890175,3.435356809523809,-0.04063038709677417,71.19084,0.076336,2.6296009735576313,-0.22277974064136655,-0.6687471340888695,1.5124046249999998,-20.938931,48.946565,22.206495705438133,-2.3375866227363757,1.299648603174603,-5.730183352904034e-17,48.946565,0.618321,2.2052920433480554,1.0974041168791853,-0.40068410284256295,102.1884663649849,37.62560146542338,140.04279686164054,29.72822053566908,3.7220081914261227,3.678530748208821,0.035741177897485904,140.04279686164054,37.62560146542338,1.1213119604361186,0.9387731705694405,1.381166269411471,0.11567623351626864,1.4712459971280218,0.014617287880258569,-0.0005707865637572171,1.381166269411471,0.9387731705694405,141.67115934375,55.251908,206.656489,42.50617280424903,3.7402597752823303,5.91530353968254,-0.0533119838709681,206.656489,55.251908,2.7054590681114887,-0.2072395110960532,-0.9209438269577301,1.29856871875,1.0034189999999998,1.7224120000000003,0.20293031528866678,1.716543139007733,0.023340650793650847,-0.0008072741935483846,1.7224120000000003,1.0034189999999998,2.617789306173782,0.34761164445806697,-1.1027534031772768
0.291179625,0.142822,0.543457,0.10229283219725861,3.805135063225553,0.03294350793650793,-0.0012246290322580644,0.543457,0.142822,2.6219246578376945,0.6872253200137944,-0.3965142340475336,-1.14787671875,-1.745361,-0.810303,0.22331367072004216,0.4642609752366416,0.033396873015873005,-0.0006536612903225839,1.745361,0.810303,3.272433207486258,-1.2055035980903734,1.0400763024639659,-0.23403940625,-0.636475,0.091553,0.20693176392758444,-0.1438438273302172,0.0383572380952381,-0.002087,0.636475,0.005127,2.5876132864758477,-0.5449654977773513,-1.058959012013803,-68.692271,-183.083969,124.221374,115.04576652387897,-0.6784939974728208,5.626681190476192,-0.04567840322580616,183.083969,0.687023,2.261146833513643,0.5472432218735597,-1.3855843469053826,-50.94191321875,-116.984733,20.656489,40.51370662482218,-0.17657422870726217,5.416333476190476,-0.0890175000000001,116.984733,3.076336,2.6640107446696093,0.09585607730058111,-0.849805200379993,4.776479,-29.152672,58.633588,27.470864945520493,-2.01125948249272,2.060341666666667,0.008987935483871005,58.633588,0.778626,2.3311035753903635,0.63333844588992,-1.0644877115810036,146.63208238465285,72.69166219730306,194.1184338033918,35.24568832492945,2.6704360298779055,3.880842205450071,-0.039828964520723736,194.1184338033918,72.69166219730306,1.23333361530315,1.0481000593082705,1.773494579285485,0.19546859450174647,1.6921042638390493,0.027657607196607488,-0.0012215841432456872,1.773494579285485,1.0481000593082705,199.983182375,113.877863,275.89313,44.414864254305165,2.4227108125483525,6.122622079365078,-0.019576483870967224,275.89313,113.877863,2.5785075460837703,-0.20065370278972258,-1.0340230870409834,1.6768570625,1.2438970000000003,2.233398,0.27135015149117175,1.7954846743741641,0.04856847619047621,-0.004437838709677425,2.233398,1.2438970000000003,2.62663747516902,0.2009439401114085,-0.9539929516710477
0.335666671875,-0.04126,1.193115,0.2265511217021661,-28.91698982064954,0.1283443333333333,0.0026304354838709676,1.193115,0.005615,2.990077478924766,1.426654396181655,2.6830208672882536,-1.145977015625,-2.0,-0.422363,0.3361193334408864,0.2111815,0.11730763492063491,8.662903225806475e-05,2.0,0.422363,2.7472303774057143,-0.7513754892609256,0.49024140848486963,-0.021038062500000003,-1.313477,1.072998,0.40180870554447845,-0.8169141903512585,0.11633500000000004,0.0009056774193548416,1.313477,0.000977,3.454129734850821,0.13659991116207382,2.0194500112657607,-33.277552546875,-250.137405,188.145038,135.42360132046562,-0.7521667461130014,15.858354571428572,0.20856932258064537,250.137405,2.259542,2.4579587176220383,-0.46908870024063837,-1.148345453960598,-27.07669375,-227.908397,250.129771,87.58314847092915,-1.0975013395403768,23.93735603174603,-0.016621516129032534,250.129771,1.114504,2.7358587491946587,-0.30914058083331564,1.13920921073165,10.5719226875,-68.206107,107.59542,42.92652442138747,-1.577504196215157,7.069550444444446,-0.002339338709677486,107.59542,0.572519,2.7834052641218925,0.3199064971377692,-0.3418686400978097,145.99194515699762,5.205306486167841,268.04302776523963,90.46758361131792,51.49418741768912,16.678282767517835,0.1737789699557988,268.04302776523963,5.205306486167841,1.28312567467039,0.8711733984311045,2.212523948830385,0.3197276908525022,2.539705588824128,0.09832599293748914,0.0006373373817636148,2.212523948830385,0.8711733984311045,203.468153671875,8.755725,388.977099,122.48092662405352,44.4254586570501,25.824427365079366,0.4853484354838713,388.977099,8.755725,2.5827618717453564,-0.2978601568959887,-1.3492905008884266,1.744976125,1.092286,3.2683100000000005,0.46946413816800253,2.992174210783623,0.16749595238095236,0.0046386774193548355,3.2683100000000005,1.092286,2.6950601687405604,1.2065519780858567,0.9793344026429613
0.089870484375,-0.1875,0.253906,0.11160461847116808,-1.3541653333333334,0.026603587301587305,3.5451612903225395e-05,0.253906,0.000244,2.6251876265001273,-0.7358091579544165,-0.13337282636019188,-1.15571978125,-1.536377,-0.86792,0.15658298274995283,0.5649134294512349,0.02875434920634921,3.1516129032260037e-05,1.536377,0.86792,2.6270688942807277,-0.51151675137337,-0.01183454853061594,-0.072715734375,-0.638184,0.463135,0.29277510911246746,-0.7257076329083776,0.03739614285714286,0.0013939838709677434,0.638184,0.012939,2.6789036544730087,-0.3204094417319205,-0.9925044195514818,-68.993320671875,-199.59542,111.053435,122.79818321747753,-0.556392701796464,6.358293968253969,0.2770253709677417,199.59542,4.625954,2.2533597215537027,0.42166423051329593,-1.5624683915196007,-13.220181250000001,-93.21374,43.80916,35.185941721647495,-0.46998607715986934,6.529625555555557,-0.1040384193548387,93.21374,1.442748,2.62665992558881,-0.6022038349830912,-0.17838945136238316,-5.665672734375,-21.229008,20.312977,13.699222513400363,-0.9568500327476441,1.1326790317460318,0.013174096774193574,21.229008,0.236641,2.5792104337481265,0.7721678530071184,-0.7988509718734829,138.7473908642433,60.44996907367364,200.7454155904459,44.65979726916474,3.3208522463557695,4.588794344331606,0.25324609698734046,200.7454155904459,60.44996907367364,1.2064733503551686,0.98819154350814,1.5384749045434574,0.1203110774002105,1.5568590063843069,0.02318635264895808,-0.0006868142001496976,1.5384749045434574,0.98819154350814,171.2465411875,84.58015200000001,244.29771000000002,48.81342524311301,2.8883574245645716,6.846964682539685,0.11524256451612898,244.29771000000002,84.58015200000001,2.818303207354181,-0.1891856824879015,-1.1090866792963998,1.5315246875,1.363526,1.7631839999999999,0.10176574645426058,1.2931062553996036,0.03133928571428569,-0.001106467741935486,1.7631839999999999,1.363526,2.580973180442377,0.08495492975948471,-0.732312684155652
0.177635203125,-0.317139,0.375,0.16228128950958762,-1.182446813542327,0.04899861904761905,0.000602483870967742,0.375,0.008789,2.6970912079322096,-1.2685118329662923,1.079768642637493,-1.1596298125,-1.701416,-0.720215,0.24404449293044633,0.4233032956078937,0.040620349206349216,-0.0008269354838709684,1.701416,0.720215,2.673500973489601,-0.17517970035338007,-0.741748271497634,-0.076473203125,-1.105225,0.845459,0.5496202206130194,-0.764965504761474,0.057338206349206354,0.0006694032258064518,1.105225,0.01709,2.6973411552282087,-0.1857873738467682,-1.019156348476243,-77.446564890625,-234.755725,124.51145,132.8915326577727,-0.5303872780951348,16.54452923809524,0.2265451774193548,234.755725,2.824427,2.5133470728706264,0.3535811219400747,-1.4440157936840647,-3.8999284375,-66.778626,72.21374,38.20069098967264,-1.0813900244069112,10.784926666666669,0.10773209677419375,72.21374,0.435115,2.7684745298377282,0.16352631887586866,-0.8915272501309053,-10.92175578125,-34.335878,100.114504,21.474216404871033,-2.915740322702684,9.145765174603174,-0.011819741935483597,100.114504,1.40458,2.5927054500909126,3.109609252928064,12.08966107657432,147.6269809989239,36.07960967552784,237.31429103112131,60.58664751414206,6.577518248266621,8.245007776088958,0.16948262745500134,237.31429103112131,36.07960967552784,1.316836081615563,0.9486300656030252,1.7164300818856562,0.1745733124322906,1.8093776953975793,0.0323976439156985,-0.00045106227065558243,1.7164300818856562,0.9486300656030252,187.18475673437501,56.70229,297.55725199999995,70.44050343016049,5.247711371092771,13.420816634920632,0.4209554354838711,297.55725199999995,56.70229,2.6840830438263223,0.199506344704595,-1.2517094906387438,1.8389701875,1.315918,2.378907,0.21150838980949535,1.8077927348056642,0.06240711111111111,-0.0005237258064516188,2.378907,1.315918,2.4769693865901394,0.5764271628075197,-0.010461291745702983
0.1667709375,-0.126221,0.572754,0.1551617310642453,-4.537707671465128,0.03680715873015873,0.00016537096774193568,0.572754,0.003906,2.9442500881921276,0.7434000955543216,0.39757021557380945,-1.0866203125,-1.665771,-0.780273,0.21242099013410057,0.46841552650394325,0.034559444444444434,-0.001149822580645162,1.665771,0.780273,2.4839864844604973,-1.150740590712571,1.2594887631604355,-0.176074921875,-0.860107,0.25,0.3514347103194888,-0.2906615107190152,0.04111249206349207,0.0007875483870967737,0.860107,0.005615,2.5906912080002393,-0.6363987587005371,-0.9557760389966963,-69.54997615625,-180.816794,115.419847,102.01810289889441,-0.6383248173286382,7.683872507936507,0.12312238709677419,180.816794,1.045802,2.454358554960229,0.6582772960777389,-0.9718122927025061,-32.455629765625,-99.091603,17.480916,33.53368747294236,-0.1764116783941824,6.789894571428571,-0.13198720967741934,99.091603,0.854962,2.7399641582459067,-0.4669195129486984,-0.8582228569833208,-1.40958971875,-23.068702,12.625954,8.787576347596941,-0.5473196541357204,1.798133968253968,-0.032381177419354826,23.068702,0.061069,2.613368607365159,-0.4283266998087174,-0.22835674352866375,120.07185160607759,13.185504751166487,192.61703137717578,54.308515605723024,14.608241020135043,6.129945341078203,0.05305416766731602,192.61703137717578,13.185504751166487,1.1741951637516337,0.8190505557522075,1.7578621091567448,0.2265378615933999,2.1462192984440898,0.02775731057358452,-0.0007474105702557516,1.7578621091567448,0.8190505557522075,152.704317734375,18.89313,264.801527,71.2846929254731,14.015757420819103,9.253847111111114,0.058483129032258184,264.801527,18.89313,2.6818205535897355,-0.07370127181703348,-0.9079360517299606,1.567153984375,1.13208,2.553223,0.3907571913875204,2.2553379619814855,0.056365444444444454,-0.00014964516129032092,2.553223,1.13208,2.413463450928247,0.7600951453805873,-0.6493925546578798
0.0781936875,-0.864746,0.622559,0.19987174527577262,-0.7199327895127586,0.09855920634920634,-0.0006339838709677396,0.864746,0.009521,2.5741974481501635,-1.2440268302210518,7.003526637712447,-1.046070078125,-1.615723,-0.755371,0.18952854695933694,0.4675126862710997,0.049231174603174596,-0.0010119999999999986,1.615723,0.755371,2.3363987626860996,-0.6307753611977811,0.27574614918525153,-0.352760359375,-1.281006,0.240234,0.31132755280110164,-0.18753542137975934,0.1045347619047619,-0.0012994516129032243,1.281006,0.01709,2.7775532644688807,-1.095097708171935,0.5447726172809286,-33.272423671875,-134.099237,99.251908,76.01322344863503,-0.7401377533564938,8.258936174603173,-0.17557251612903232,134.099237,0.770992,2.6720538479646354,0.27748525969908,-1.3045362412187782,-12.863549656250001,-88.022901,90.725191,34.23964611616384,-1.0306998516215682,14.069065841269841,0.2860132903225802,90.725191,0.068702,2.6849140246233234,0.13084745262865594,0.12044028079921176,-1.2397424062500002,-48.267176,27.0,21.357475463461956,-0.5593863622765086,3.28050411111111,-0.10465403225806458,48.267176,0.396947,2.5534136184459397,-0.5001736054656442,-0.9079469208561641,83.3868327356211,13.661439490693137,148.65445252058225,40.46054608718035,10.881316908211113,9.033874332634555,-0.08456886473848968,148.65445252058225,13.661439490693137,1.1520227151298914,0.792082826693017,2.0300355727907826,0.26235584181080646,2.562908201489832,0.058839326582744184,0.0005356976327939515,2.0300355727907826,0.792082826693017,118.469942828125,22.961832,227.94656600000002,59.77084440570012,9.927194223875517,15.194838285714287,0.016867774193548762,227.94656600000002,22.961832,2.791453826509903,0.16707788078032101,-1.1244667907476897,1.56010053125,1.016357,3.461914,0.46900712706200026,3.406198806128162,0.14945285714285708,-0.0005355322580645213,3.461914,1.016357,2.3679631538886494,1.5011311229521935,2.877535868964112
0.021923078125,-0.247314,0.218994,0.09541475891447868,-0.8854897013513185,0.03599709523809524,-0.00040558064516128947,0.247314,0.000244,2.8917374578518777,-1.0799872898178946,1.4003246195736443,-1.098941875,-1.331299,-0.884766,0.12479710969441297,0.6645884958976158,0.02595634920634921,-0.0003780322580645155,1.331299,0.884766,2.644874803955356,-0.09005129974973869,-1.0043797075525305,-0.5112190625,-1.068848,-0.210205,0.26026421607092265,0.19666500755954075,0.03672953968253968,-3.5435483870967364e-05,1.068848,0.210205,2.472265742258949,-0.7992476380945008,-0.8219657265717246,-71.841841578125,-155.366412,90.770992,90.02756890459534,-0.5842381942887374,5.125287746031746,-0.005786758064516132,155.366412,4.244275,2.0914872444821575,0.8262949906688407,-1.043626698904014,-22.51717565625,-104.870229,47.679389,40.690842315665506,-0.4546513291202978,7.7316127777777774,0.04321595161290319,104.870229,0.122137,2.6524268465116903,-0.5721101605242007,-0.527177788530067,4.79687503125,-18.038168,24.282443,9.30567014000484,-1.3461701321331525,1.8472070634920634,-0.012189112903225741,24.282443,0.389313,2.807753710565654,-0.1790282672778209,0.29445073244194164,115.40797359067084,19.63892215945432,184.9302255375605,45.80951296703215,9.41651604075093,5.537422686287387,-0.00117260289128774,184.9302255375605,19.63892215945432,1.2433281482476652,0.9103403752426892,1.419048070957781,0.12180931188627069,1.5588104290985387,0.022483587329492592,-0.000494790113516708,1.419048070957781,0.9103403752426892,149.100787296875,31.488549999999996,259.21374,63.39832382672283,8.231999885672728,9.298800349206346,-0.06217679032258092,259.21374,31.488549999999996,2.7334499217098194,0.20835585027549322,-0.8643061594203854,1.683765546875,1.1364750000000001,2.116944,0.24634519962216958,1.8627281726390814,0.04322053968253967,-0.0015357258064516066,2.116944,1.1364750000000001,2.650314356999538,-0.15060654193063813,-0.5031417855706022
0.091457390625,-1.437744,0.729248,0.28712902322600203,-0.507216861972646,0.12754595238095237,-0.00024019354838710868,1.437744,0.011963,3.013662362628003,-2.8028025744995584,13.308344506216553,-1.052547390625,-1.759521,-0.73584,0.2078700569945284,0.4182047273093075,0.07241671428571426,0.00030716129032258164,1.759521,0.73584,2.4673536274195906,-1.0331646088168671,1.3498923054096243,-0.239318890625,-1.671875,0.41333,0.3125476509662861,-0.24722542056074764,0.11044453968253966,-0.0014609193548387072,1.671875,0.004883,2.742199690954926,-1.578676268350444,5.905392181104036,-24.7120705625,-176.21374,132.045802,99.33998212168333,-0.7493502039057794,7.374772841269843,-0.19268653225806498,176.21374,0.801527,2.5333189126235527,-0.3580928151728793,-1.3121748198323901,-10.912094359375,-139.549618,136.969466,51.00973967460071,-0.9815108630394102,18.913364857142856,-0.4175080161290324,139.549618,0.305344,2.5540894048008886,-0.28433018263879445,0.2994564952925267,-4.254055296875,-54.229008,26.137405,19.951761482600062,-0.4819819864674641,3.9168787301587304,-0.025609467741935562,54.229008,1.312977,2.51039072233104,-0.2006642466228574,-0.6229270068785704,99.10107879478764,17.20854182166502,204.87237907085267,60.42609751940266,11.90527246259324,10.992045307089102,-0.1779210661626443,204.87237907085267,17.20854182166502,1.141400117849709,0.7411365336272393,2.3417566450743768,0.30329268410013643,3.1596831876758924,0.08609492363021684,-1.7949236085673492e-05,2.3417566450743768,0.7411365336272393,140.05236165625,26.366411999999997,298.48854900000003,82.45273389949587,11.3207875610834,18.94220290476191,-0.09455798387096784,298.48854900000003,26.366411999999997,2.676829089248423,0.363025950158115,-1.086703483193569,1.536529515625,0.82666,3.949462,0.5508013247321562,4.777613529141364,0.17030942857142856,-9.45322580645198e-05,3.949462,0.82666,2.872837037381756,2.2913022480141,6.433753522645668
0.1659469375,0.039795,0.296875,0.05065318543294161,7.460108053775601,0.030459444444444445,0.0019570645161290324,0.296875,0.039795,2.646529201064852,0.15653058993947006,0.9703094779108858,-0.90195846875,-1.321289,-0.690186,0.1576341167633986,0.5223580912275816,0.03406347619047618,0.00023625806451612894,1.321289,0.690186,2.4070112699067767,-0.596121745658408,-0.42852086600942485,-0.48053740625,-1.685303,0.017822,0.23143437462292024,-0.01057495299064916,0.09269211111111109,0.0005000967741935472,1.685303,0.017822,2.5138045869229444,-2.586991076012042,11.048385904509129,-30.834207984375,-102.320611,92.389313,51.64540921076093,-0.902939418530251,5.246455825396826,0.06710170967741921,102.320611,0.740458,2.546574782047353,0.46173491833570607,-0.630273395479716,-12.820372078125,-37.717557,35.648855,17.814026579337597,-0.9451528104007372,5.368108539682541,0.2595419838709677,37.717557,0.053435,2.818865021413875,1.0921920483120737,0.4190671551616192,-9.054150796875,-21.603053,-1.167939,4.736522092883498,0.054063608509408376,1.4525626984126985,0.056636306451612946,21.603053,1.167939,2.6930743356713287,-0.27675241215662305,-0.671926913879064,57.14560155286066,11.493326557907594,105.03400517178218,30.094132831681566,9.138694932453399,5.319998203781718,0.02249857892990983,105.03400517178218,11.493326557907594,1.052405990225087,0.812187839096351,1.9865871645923316,0.2117468956957156,2.4459700933254926,0.0643375853691411,0.0006395460445013379,1.9865871645923316,0.812187839096351,78.752623984375,17.564886,141.343512,38.29490421361611,8.046935915211746,7.163698015873017,-0.10059096774193539,141.343512,17.564886,2.535535949081512,0.10903174459383552,-1.465139105389231,1.54899975,1.0,2.991211,0.3198189880526916,2.991211,0.11325411111111111,0.0031895806451612864,2.991211,1.0,2.246308049123402,1.784036626124278,4.901467419111339
0.189968078125,0.102051,0.285889,0.04890386100422727,2.8014326170248207,0.02304990476190476,-0.0012994677419354839,0.285889,0.102051,2.665416267428086,0.044587770706217444,-1.1378100086576304,-0.918048890625,-1.112061,-0.69165,0.13466514397572882,0.6219532921305576,0.019651444444444447,0.0002598870967741943,1.112061,0.69165,2.7228553574778043,0.25248777692277524,-1.327812060600348,-0.4032821875,-0.630371,-0.157227,0.09861449998132862,0.24941978612594806,0.029882,0.0004764838709677417,0.630371,0.157227,2.8222772051985197,0.38559985157839577,0.31578026217160593,-41.78983775,-117.885496,47.427481,45.719754842133476,-0.4023182037593497,5.040712476190477,0.09800541935483881,117.885496,0.969466,2.6674504826749854,-0.1469550567767468,-1.0134136587533396,-14.95002384375,-55.931298,40.816794,20.03744524173422,-0.7297666147494021,4.495698523809522,-0.11265698387096769,55.931298,0.709924,2.935732282211645,0.3593477330736179,0.20700117465568102,-4.00691796875,-11.435115,5.374046,3.7094613629430313,-0.4699599435598155,0.7648127301587301,0.010711645161290327,11.435115,0.053435,2.7208700190032147,-0.044526119083623895,-0.215251177385682,56.54438335643075,5.860821381871828,119.94538147733238,35.70728049911878,20.46562651582196,5.003900272179951,-0.019510008368153958,119.94538147733238,5.860821381871828,1.025155255359324,0.8196556087455268,1.2975031264339982,0.143863413571401,1.582985723015806,0.02417962532444839,-0.000282545289989772,1.2975031264339982,0.8196556087455268,75.16758109375,8.755726000000001,147.030534,43.90727621703313,16.79250058761546,6.747849126984126,-0.15291801612903222,147.030534,8.755726000000001,2.7327293331926383,0.25821748979666287,-1.321296976547433,1.51129915625,1.212159,1.964844,0.22729144690457478,1.6209457670157132,0.04423214285714286,-0.002193322580645164,1.964844,1.212159,2.550855480196295,0.3559124796983185,-1.3214413547368418
0.17478559375,0.073975,0.30957,0.042397360057347205,4.184792159513349,0.015551396825396826,0.00040162903225806484,0.30957,0.073975,2.644734507406104,0.8415266783608925,0.9237340880696583,-1.060161609375,-1.347412,-0.86377,0.12455151102415633,0.6410585626371147,0.021503777777777774,-5.9080645161291656e-05,1.347412,0.86377,2.6155722697158232,-0.22335131613363338,-0.6110756697733297,-0.36919021875,-0.675537,-0.060791,0.17118818293295798,0.0899891493730173,0.02592155555555556,0.00026777419354838676,0.675537,0.060791,2.66577701096409,-0.15592721059560485,-0.9199422193434796,-46.644680406250004,-121.671756,79.0,74.34697032141912,-0.6492879086909866,3.747122253968253,0.05355824193548385,121.671756,2.251908,2.290725982014055,0.5731831560242107,-1.3608771882862434,-17.4001669375,-71.770992,33.725191,36.19743906566711,-0.46990002590461616,3.2606324761904757,-0.035089903225806525,71.770992,0.534351,2.642622069467395,0.05769293484913179,-1.418447868224539,-6.448115453124999,-21.748092,30.480916,18.223564800276293,-1.4015443745593867,0.9617108412698413,0.005171145161290286,30.480916,0.51145,2.040299859510496,0.9421378935924379,-0.7326532039378941,90.40826952481508,5.336499950140447,139.92797215643864,37.76904122128145,26.22092634944295,4.323799016278705,0.03890643568381999,139.92797215643864,5.336499950140447,1.1525499369986383,0.9892598775700954,1.4014575504295517,0.09188169615678617,1.4166727896333282,0.017268980187283626,-1.584944137709047e-05,1.4014575504295517,0.9892598775700954,132.781130703125,8.557250999999999,211.641221,55.189234287300636,24.732384383723232,7.073791412698411,0.05983745161290332,211.641221,8.557250999999999,2.640483255701246,-0.44437784426310895,-0.552198516889022,1.604137421875,1.198974,1.9101559999999997,0.16565983190536687,1.593158817455591,0.02753371428571429,0.00014567741935483757,1.9101559999999997,1.198974,3.3715347637471784,-1.067337757260053,0.6935140737189815
0.10210028125,-0.004395,0.224365,0.06703760100394472,-51.050056882821394,0.02442957142857143,0.00025595161290322625,0.224365,0.000488,2.7792988643074215,0.10084200785233424,-1.247109584687066,-1.059684765625,-1.420166,-0.76709,0.1946060966192699,0.5401410820988533,0.023495603174603173,-0.0004292258064516142,1.420166,0.76709,2.6944091828541024,-0.22515657906096337,-1.0780464178559745,-0.264293625,-0.428955,-0.018066,0.11754431654939125,0.04211630590621394,0.024650444444444444,-0.0003189354838709681,0.428955,0.018066,2.699604544019622,0.41820910935701605,-0.9320835406683114,-36.3187023125,-163.206107,102.358779,91.39164685280495,-0.6271749316341453,4.577971666666667,0.012312225806451789,163.206107,0.740458,2.6278167056067314,-0.10076064922072255,-1.511284671920532,-12.7540553125,-60.900763,44.916031,31.552352456874626,-0.7375282145479852,2.4790985555555554,0.004555532258064469,60.900763,2.847328,2.557111097801852,0.5326750212727849,-1.0177292551764945,-0.5161021250000001,-29.694656,38.648855,22.958085691700152,-1.3015424391513408,1.1554586190476186,0.0023393225806452116,38.648855,0.19084,2.6084697927675236,0.3440107206652823,-1.38773628820931,93.53274303218929,22.167027071797314,174.34247910908002,49.933201225945126,7.864946370318311,3.925937606244117,0.016337939564595807,174.34247910908002,22.167027071797314,1.1088194121681105,0.8700599149989615,1.468139383780028,0.17173266193319328,1.6874003255072156,0.023342956843922878,-0.0005306850260488121,1.468139383780028,0.8700599149989615,134.998688,25.633588,250.358778,66.64712720162719,9.766825385505923,5.6449775396825395,0.014528435483870243,250.358778,25.633588,2.7097929109370047,0.1417282213926903,-1.0621196652607083,1.426269421875,1.094972,1.9375,0.1944792821775915,1.7694516389460186,0.044263015873015885,-0.0011143709677419393,1.9375,1.094972,2.5687499650045242,0.9792273254636658,0.27060478322722936
0.071388265625,-0.138916,0.503906,0.08936899226885434,-3.6274151285669034,0.05057590476190476,0.004366967741935485,0.503906,0.002686,2.727595994311117,1.8953074641965173,7.505354191280862,-1.049316421875,-1.419434,-0.725098,0.199420982695562,0.5108360092825732,0.04293003174603176,-0.0005591612903225794,1.419434,0.725098,2.766799708731481,-0.1970500811910853,-1.160795082728307,-0.16922759375,-1.191895,0.377686,0.21933801381832752,-0.31687858410346553,0.09047544444444446,0.008225967741935484,1.191895,0.003662,2.546536957566589,-1.5747972482572061,6.43006935339041,-25.339217515625,-166.305344,109.114504,88.59513204723423,-0.6561094272472687,8.917726888888888,0.03915293548387082,166.305344,1.748092,2.606010739115023,-0.32530394958244424,-1.408823792469116,-3.229723265625,-40.992366,61.916031,26.1386713337937,-1.5104283319484413,6.363261825396824,0.7089386935483871,61.916031,1.290076,2.532463433219723,0.747927141409589,-0.010908991055805117,-10.733420828125,-47.679389,38.221374,26.850101580684626,-0.801633049450361,2.74639526984127,0.10071411290322578,47.679389,1.694656,2.5601239238032982,0.4671662160787822,-0.8891474098536665,87.62153606957492,7.510321564594489,174.6501361351704,47.2626239944342,23.254681525024747,8.056010210511497,0.053352850413919246,174.6501361351704,7.510321564594489,1.0893613578821264,0.7622019977414124,1.5665635871170376,0.20768198268565488,2.0553128852445175,0.05748688046004762,0.0011116868974322689,1.5665635871170376,0.7622019977414124,124.529699546875,12.725191,238.64122199999997,64.72416479607837,18.75344912308192,11.176057095238095,0.11819751612903215,238.64122199999997,12.725191,2.7103553033470376,0.3372773211841476,-0.9356585295714561,1.3324204375,0.874511,2.337891,0.30043297596502677,2.6733694601897517,0.1020664285714286,0.006670548387096776,2.337891,0.874511,2.277263485388031,1.2015539147167174,1.6437248340807988
0.181217234375,0.062256,0.420898,0.0834143931135374,6.760762014906194,0.023197253968253975,-0.00024412903225806424,0.420898,0.062256,2.8993972234092693,1.3799415941406175,1.2244039132034512,-1.021835328125,-1.359619,-0.734619,0.18416617755979475,0.5403123963404455,0.02650287301587301,0.00011025806451612649,1.359619,0.734619,2.6863457993441653,0.04710143884570255,-1.1800078253457598,-0.485073078125,-0.728271,-0.193604,0.16896843162549022,0.265840600545676,0.02814587301587301,-0.0005670322580645173,0.728271,0.193604,2.726169872191309,0.08457696138319822,-1.263906454418644,-33.296875015625,-114.984733,70.908397,67.08277403578948,-0.6166766243654276,4.073791333333334,0.02721004838709693,114.984733,2.320611,2.55494769216241,0.2565259453130766,-1.5790392876310664,-25.82442746875,-66.854962,24.862595,24.830114295363735,-0.37188855181758984,3.7921967936507937,0.026348193548387033,66.854962,0.51145,2.698584088039398,-0.007587570181752606,-0.8667539294937545,-13.903148859375,-55.458015,48.763359,36.30446414963397,-0.879284247732271,1.7762025714285716,0.005663629032258112,55.458015,1.045802,2.3870359705797632,0.3817282850554704,-1.4003220769614093,82.52862653074385,4.729542575280298,132.8757014753086,38.931926823607185,28.094831447295654,4.25938471973501,-0.04596803264316528,132.8757014753086,4.729542575280298,1.167441489272369,1.0197581866947674,1.4633600507602358,0.13410854223102595,1.4350069162016414,0.019738718967181105,-7.633837116263127e-05,1.4633600507602358,1.0197581866947674,130.91638834375,7.259543,216.221375,63.47862928251744,29.78443340028429,7.550587682539682,-0.026963806451613163,216.221375,7.259543,2.573582358998779,-0.2674272288106423,-1.0057888696657733,1.688125640625,1.3535160000000002,2.158447,0.22186825038034869,1.5946963316281444,0.03407117460317462,-0.00021264516129032037,2.158447,1.3535160000000002,2.464560752236315,0.9427946121053989,-0.39385185978204174
0.221488984375,0.077881,0.473633,0.06919410944180292,6.081496128709184,0.028033523809523807,0.0003898387096774195,0.473633,0.077881,2.780173918879385,1.2282933089158408,3.114819333540755,-0.976081890625,-1.425537,-0.571777,0.2567680635876961,0.4010958677326509,0.028494714285714297,-6.693548387096933e-05,1.425537,0.571777,2.722697161370656,0.01704161881028616,-1.2551155105416665,-0.44365696875,-0.646973,-0.239746,0.12430420230008045,0.3705656959409434,0.02227876190476191,0.00019688709677419348,0.646973,0.239746,2.7054590681114887,-0.09794270705140744,-1.228833361858217,-48.93260971875,-139.679389,97.221374,83.31540681903128,-0.6960323544943342,4.051496428571428,0.020438306451612803,139.679389,0.19084,2.3906502804646785,0.5682972712952346,-1.2482154478152843,-28.225429421875,-61.290076,9.480916,20.37834257637271,-0.1546892518129689,2.683872492063491,0.0057867419354838716,61.290076,1.129771,2.544028780203349,0.10499825675760628,-0.8123564492146125,-26.144203234375,-83.122137,64.458015,48.5254895007222,-0.7754614754430581,2.442142253968254,0.03533612903225786,83.122137,1.068702,2.67095859334435,0.5363382535450866,-1.1833049964047526,107.11065803880852,22.369245212487098,162.58612367830906,44.640270040414336,7.268288318800727,4.194442299391047,0.033834178749666606,162.58612367830906,22.369245212487098,1.1184443882174602,0.8547882740035687,1.4691526784660605,0.18178567681942004,1.7187328408062916,0.021448129612632913,-3.039933715748826e-05,1.4691526784660605,0.8547882740035687,165.57347328125,26.755724999999998,245.259542,67.22764858505101,9.166619181502277,7.432206444444445,0.06156117741935468,245.259542,26.755724999999998,2.606214389000799,-0.6744232155292739,-0.8655338955435958,1.64122784375,1.3479,2.199707,0.1835228372146326,1.631951183322205,0.03854322222222222,-8.662903225806475e-05,2.199707,1.3479,2.640310859480253,0.8030280809785125,0.7300649434942157
0.153888765625,-0.591309,1.341309,0.26271775170762496,-2.268372373835,0.11208769841269844,0.0015120967741935516,1.341309,0.000977,2.9612436581607247,1.6562148930627645,7.960059176195731,-1.0116043125,-1.343506,0.046875,0.23559693658832997,-0.034890056315342095,0.09752063492063492,-0.00037801612903225695,1.343506,0.046875,2.312098806679508,1.4999357198374994,4.492677099244301,-0.328189890625,-2.0,0.630859,0.3928116784383167,-0.3154295,0.15778847619047617,-0.0014254677419354854,2.0,0.036865,2.3863050296207917,-0.6298827162855842,4.3549533880276625,-13.700739500000001,-139.206107,116.732824,79.89388277836598,-0.8385610841053115,15.370410746031748,0.08433883870967725,139.206107,0.053435,2.5134603935494857,-0.35724338693072827,-1.4096766176578324,-6.078005703125,-64.061069,146.572519,37.10183116988801,-2.288012380811191,15.093541714285713,-0.019576451612902446,146.572519,1.038168,2.2150580491234018,1.458629372578606,3.1360624934930366,-15.351145031249999,-83.435115,41.908397,43.67745866586925,-0.502287280361512,6.8764085873015866,0.07953704838709703,83.435115,0.061069,2.6401576650755234,-0.25705592856694354,-1.4515854393875731,91.2786137306929,15.767158058253905,162.66918756113733,40.87639258492896,10.316963079848248,10.675804194108204,0.11318554914692257,162.66918756113733,15.767158058253905,1.1759226641767944,0.6325988444780783,2.077294230928782,0.21713376125878545,3.2837464833541397,0.09563231454341693,-0.0012668230511895,2.077294230928782,0.6325988444780783,139.037810171875,16.832061,248.030534,60.50199660371059,14.73560094631311,16.776687269841272,0.2226052741935485,248.030534,16.832061,2.6741899385868577,0.1903807167400947,-0.9891398531932434,1.6480332500000001,0.678711,2.749512,0.315794389284929,4.051079178030119,0.15285519047619045,-0.00026777419354839435,2.749512,0.678711,2.4795195398150947,1.0710208945139867,3.149679533052355
-0.1343345625,-0.243164,0.151855,0.08908169612961668,-0.624496224770114,0.014811126984126986,0.00040559677419354845,0.243164,0.037109,2.386622795583664,1.4825172647726328,2.346134420070574,-0.98532865625,-1.185303,-0.882324,0.085457726419747,0.7443868782918798,0.015535873015873017,-4.3322580645160747e-05,1.185303,0.882324,2.3777516100837857,-0.7014488145244497,-0.6442955508454689,-0.29425425,-0.619385,0.124756,0.1178999947392866,-0.2014191496403691,0.030188222222222227,0.0052647903225806454,0.619385,0.10376,2.77181464041796,-0.25467056109607694,2.3119483491143287,20.63144084375,-71.946565,89.938931,43.33010186544488,-1.2500795694693692,3.2073186031746035,0.10329969354838722,89.938931,0.175573,2.7197185897246645,-0.0471075777410823,-0.9549092429194901,-8.8369513125,-53.694656,42.038168,22.642669780391326,-0.7829115806235912,3.247303968253968,-0.01083477419354842,53.694656,0.709924,2.6118672642186374,0.1594550269249207,-0.680831102776851,-20.756202265625,-27.549618,-12.21374,4.8635480038438,0.4433360927182366,0.5651277777777778,-0.007387354838709688,27.549618,12.21374,2.7054590681114887,0.3080111804781202,-1.3080398758261813,53.441963085329014,23.60830773353679,105.85028399274127,21.491097821359933,4.483603195428345,2.99846148540561,0.06801791055256383,105.85028399274127,23.60830773353679,1.0480984719746644,0.9546590425706971,1.264150190399859,0.07594267497973556,1.3241902438757267,0.01961834126643242,0.0003559184961260541,1.264150190399859,0.9546590425706971,79.13752385937501,36.572519,158.870228,29.30415138743674,4.34397827505401,4.289834063492063,0.06193059677419357,158.870228,36.572519,2.575452074979168,1.1526534475437913,0.5298075672283824,1.4334029375,1.3093260000000002,1.853516,0.08595785215042011,1.4156260549320794,0.036749,0.0011931290322580643,1.853516,1.3093260000000002,2.5259054237122682,2.6405085250264304,10.128451512455168
0.031570515625,-0.055908,0.142334,0.05964875067785011,-2.5458610574515275,0.007979174603174603,-8.270967741935479e-05,0.142334,0.0,2.671472760598469,0.2672010044262061,-1.091691133892595,-1.06663125,-1.169922,-0.876465,0.09303886877186962,0.7491653289706495,0.00970363492063491,0.00018901612903225864,1.169922,0.876465,2.62015694004934,0.9052019043610736,-0.7297969010862868,-0.013984687499999999,-0.300049,0.327881,0.1897699552483174,-1.0927581828301376,0.013241682539682538,7.875806451612924e-05,0.327881,0.01001,2.6826297172405167,-0.02490219334750567,-1.1637098603313327,73.013955078125,25.366412,103.358779,22.82349236392721,4.074631406286391,2.434872158730158,-0.014035951612903257,103.358779,25.366412,2.8611841444553945,-0.4733448157721254,-0.9592063730832172,47.476979953125,-16.717557,104.755725,28.5013134535046,-6.26621012866892,3.0210832380952377,0.012312241935484006,104.755725,1.412214,2.925500142322895,-0.10960307855796513,-0.012805709691114497,17.08492365625,-19.167939,26.076336,12.438945438038168,-1.3604141791144055,0.8949473174603172,0.031273080645161294,26.076336,0.137405,2.133432101122438,-1.6398078438274584,1.3007617768396313,93.38548768588406,35.30945336913782,126.35476614223188,25.11406188919897,3.5784968071092287,2.5896797818336257,-0.0024082354166922422,126.35476614223188,35.30945336913782,1.086380068479888,0.9184375804609697,1.1846785939696893,0.0790170426129348,1.2898847120074197,0.009139167502945815,0.00030594622656387836,1.1846785939696893,0.9184375804609697,141.85209915625,49.580153,196.633589,41.61104706313867,3.9659738242437452,4.328607793650795,-0.04530904838709717,196.633589,49.580153,2.8168342291606567,-0.9903317999154101,-0.10340789094923464,1.280902859375,1.0971680000000001,1.481446,0.07759551902867261,1.3502453589605237,0.01608998412698411,0.0005394516129032237,1.481446,1.0971680000000001,3.0195597611364104,0.40643525440216194,1.0719060809646024
-0.014656046875,-0.372803,0.226318,0.12639605050772018,-0.6070712950271323,0.04715790476190476,0.0013152096774193545,0.372803,0.006348,2.662865215648304,-0.7264686795937086,0.27836430666529166,-1.01532365625,-1.240723,-0.795654,0.09690075358401432,0.6412825425175482,0.037985126984126996,1.1822580645162817e-05,1.240723,0.795654,2.5703481874557554,-0.703427249961305,-0.04927599376231884,0.19311909375,-0.174805,1.105713,0.34463011920100517,-6.325408312119219,0.09752058730158729,0.0030360000000000022,1.105713,0.003418,2.4879975629608073,1.0876964536489377,-0.13968074389049612,20.72471375,-54.664122,120.305344,56.93721617671763,-2.200809957214716,6.275051476190477,0.12607732258064513,120.305344,2.099237,2.6503143569995378,0.5498180412269984,-1.2305039992599756,14.365696625,-99.59542,90.221374,50.444402586981795,-0.9058787442233789,13.631770285714284,0.4413937419354839,99.59542,0.694656,2.6169066223039548,-0.21683982432081222,-1.0080549968151957,3.642294875,-35.167939,35.374046,20.808176996941057,-1.0058606505203505,2.4681933809523815,-0.04924895161290326,35.374046,0.770992,2.6097342957865015,0.03806018250689091,-1.2636206457202162,73.20796788881322,17.475091472814043,153.73990200924726,37.874072829814125,8.797659356943571,9.611370152425035,0.25170673954278644,153.73990200924726,17.475091472814043,1.0877315049002,0.830568152847194,1.586281509650478,0.1659699009179946,1.9098751911118828,0.05439240988267743,-0.00024400567954419386,1.586281509650478,0.830568152847194,109.72888840625001,27.427482,243.625954,60.58201486586133,8.882549043328147,14.60838473015873,0.25744888709677405,243.625954,27.427482,2.578581066302816,0.7410311284544873,-0.4505532013082423,1.372902015625,0.960449,2.333253,0.37743484864137317,2.4293356544699405,0.09571088888888889,0.0017326129032258085,2.333253,0.960449,2.37449551945961,1.2355210758542199,0.36796370800076206
-0.015411328125000002,-0.227051,0.156494,0.12141239187546866,-0.6892460284253317,0.02659968253968254,0.001000177419354839,0.227051,0.000732,2.673479650938023,-0.17275839495399087,-1.325888433869499,-1.033119265625,-1.274658,-0.78418,0.15442477568071594,0.6152081577960519,0.02850628571428571,0.001992500000000003,1.274658,0.78418,2.5315130744648635,0.2222223298223443,-1.176361373399529,0.173816671875,-0.372314,1.035645,0.41799301559597574,-2.7816439886762248,0.06505377777777777,0.005788499999999999,1.035645,0.004639,2.5041795396715276,0.26371685406645895,-1.4251469277116298,24.07585871875,-70.152672,105.442748,57.51184801479227,-1.503046783449674,5.402399142857142,0.002093064516129071,105.442748,1.671756,2.755391659300177,-0.11391367382417598,-1.2959724295935477,18.5868320625,-31.854962,83.412214,23.369822257060807,-2.618499874525043,6.917484523809525,0.24698351612903224,83.412214,2.78626,3.0122413626519613,0.6101404207490309,1.148303176404215,-1.1859494687499998,-25.671756,17.816794,14.117870935158072,-0.6940231903107836,1.3568399682539682,0.06550111290322577,25.671756,0.572519,2.651399310751476,-0.14161519853499338,-1.4563717734013155,64.61703693994218,18.610339374211637,114.47865706918456,27.434813547213047,6.151347096217801,6.288898952123449,0.2764590336758034,114.47865706918456,18.610339374211637,1.128836256226197,0.8366854676459966,1.533106326207677,0.1844414331159404,1.832356824029765,0.034011107938707895,0.0031882219802726983,1.533106326207677,0.8366854676459966,89.27779096875,31.664122,164.244274,36.51314478355892,5.187078106887031,8.482248809523808,0.45690717741935477,164.244274,31.664122,2.665730411692205,0.2585655629079021,-0.6871062302230699,1.5181312656250001,1.089355,2.226073,0.30600936395420736,2.043478021397983,0.06571253968253969,0.00901743548387097,2.226073,1.089355,2.5109718096972053,0.3815362931009417,-0.9006580268979922
-0.150325796875,-0.459961,-0.041504,0.09226912927300959,0.0902337372081546,0.02914960317460318,0.0007599838709677427,0.459961,0.041504,2.574396096333522,-1.4243076323977533,1.3679815308153964,-0.97385403125,-1.244873,-0.834473,0.09474493017922209,0.6703278165724537,0.021895142857142863,-1.5758064516129124e-05,1.244873,0.834473,2.8004649894126135,-0.9992065967418439,0.9121624308490488,0.224346125,-0.122559,1.012207,0.2605564528806798,-8.258936512210447,0.052699523809523814,0.0022602580645161305,1.012207,0.012939,2.4179455204044737,0.7923992215958819,0.18658432970051875,22.475429375,-29.740458,69.48855,31.40720700956767,-2.3364989873390654,3.651762984126984,0.043954693548387075,69.48855,2.664122,2.681905229477838,-0.2433606244453087,-1.1952939766229707,2.2622853125,-58.328244,50.259542,27.728953506450218,-0.8616673253527057,6.697685682539681,0.34560453225806465,58.328244,0.862595,2.6412373163214484,-0.40292759502333225,-0.5701365065038217,1.54198465625,-19.580153,19.473282,11.307272029400112,-0.9945418710466666,1.3147946031746034,0.09578920967741938,19.580153,0.061069,2.938602883918149,-0.23622532159925314,-1.1242945588236253,44.61912143345209,7.141195636470829,87.86407633612723,19.53132354712807,12.303832692581093,4.932719192847466,0.29128008591002696,87.86407633612723,7.141195636470829,1.0458779194658245,0.874746581821844,1.4357735267450782,0.10811342480980558,1.6413594023480234,0.02487614231966549,0.000778119802780695,1.4357735267450782,0.874746581821844,66.674021875,12.290076,139.08396900000002,29.608575563886006,11.316770457725406,7.639040349206351,0.3974390483870969,139.08396900000002,12.290076,2.9725812613297107,0.8333440815955994,0.35668952591423597,1.385757453125,1.047364,2.340332,0.27131336825060753,2.2344972712447633,0.05452090476190477,0.001547548387096773,2.340332,1.047364,2.2439777096116287,1.3458003689725024,1.845472973951079
-0.10755159375,-0.739502,0.161621,0.1523300127332904,-0.21855383758258934,0.06789825396825397,0.0024020322580645143,0.739502,0.003418,2.6808219696789624,-1.2725830130480678,3.55855256189441,-1.0099449375,-1.295654,-0.822021,0.10328178482189411,0.6344448440710251,0.0372101746031746,0.0014412258064516127,1.295654,0.822021,2.747484223947211,-1.0121571158100346,0.8476180803696578,0.25818634375,-0.188965,1.27417,0.4037597987945433,-6.742888894768873,0.11240542857142857,0.0013388387096774199,1.27417,0.002441,2.3465296249507595,1.0762906942214203,-0.021793255094333386,12.597686171875,-77.992366,158.793893,76.67673761337763,-2.0360184098018004,9.40106626984127,-0.040630387096774356,158.793893,2.717557,2.6456006411133863,0.6686383981269143,-0.9925431163611185,0.9868797656250002,-88.435115,65.938931,39.406404112711535,-0.7456193277975609,11.915182349206347,-0.09517361290322544,88.435115,0.206107,2.6380289744377787,-0.3834610164758676,-0.36312541454378566,-10.2694418125,-38.183206,8.549618,14.563454366429186,-0.22391042805572695,2.6675148095238095,0.0004924677419355149,38.183206,0.335878,2.573883056947614,-0.5526729260050012,-1.113914925311022,76.6569776973637,4.545568915591204,169.35219037845107,44.09149417059245,37.25654445532146,10.606892399136845,0.004064845160378065,169.35219037845107,4.545568915591204,1.1241035024625845,0.892798344361144,1.5746014038981422,0.16992905916809078,1.7636697176279748,0.062047961142946154,0.0012589076216622638,1.5746014038981422,0.892798344361144,107.49570615625,6.717557,223.19083899999998,58.76328445922978,33.22500114252845,17.538349682539682,0.062423016129032484,223.19083899999998,6.717557,2.73293445998358,0.2612664306159638,-0.8753647880586337,1.47317890625,0.942139,2.456788,0.38552675383373625,2.607670418059331,0.130677253968254,-0.0012915806451612919,2.456788,0.942139,2.5363048176778378,1.0541482922440653,0.30014115415804543
-0.14903271875,-0.39624,0.013672,0.12742940568956537,-0.034504340803553406,0.01420279365079365,-1.9693548387096745e-05,0.39624,0.000732,2.4820078461206307,-0.24947660824722395,-1.2271578950579325,-0.998485578125,-1.286865,-0.704346,0.17641065997681127,0.5473348020188599,0.02347622222222222,-7.875806451612856e-05,1.286865,0.704346,2.750128780271379,0.002072373014883741,-1.22122552359677,0.29692078125,-0.413086,1.128662,0.5705603285332614,-2.7322688253777665,0.03797360317460318,0.0009489999999999998,1.128662,0.001709,2.518093362304973,0.16302857696723907,-1.6157103663755317,74.705033359375,-118.832061,201.091603,103.98160226174863,-1.6922335715442989,8.27323396825397,-0.052203887096774405,201.091603,0.198473,2.6382613240375434,-0.4493119284690829,-1.0903153290706666,12.475906515625,-37.442748,50.061069,25.414694836969677,-1.3370030693260013,3.2291288253968253,0.2709923709677419,50.061069,0.923664,2.6471830132518273,-0.3739968633374739,-0.7110434160311905,8.43738071875,-25.969466,28.610687,18.81945622937292,-1.1017048637041669,1.5418635714285716,0.01292783870967744,28.610687,0.152672,2.4678165777428256,-0.5682667999855162,-1.122889129196045,118.49779056608773,14.608758826629865,205.89072158307187,58.71546966492559,14.093649161197726,7.36266956044583,-0.037986402884511,205.89072158307187,14.608758826629865,1.1817830382003562,0.789236806221048,1.5901216830387541,0.2811433031744191,2.0147586510219035,0.02715425226113916,-0.0005117591886932372,1.5901216830387541,0.789236806221048,152.802242375,19.48855,263.22900799999996,68.19105437376766,13.50685443504006,9.882951666666665,0.17187887096774201,263.22900799999996,19.48855,2.7673668735305466,-0.11929636346145783,-0.9631396058016177,1.681690328125,0.9987799999999999,2.567627,0.5547397008270779,2.5707633312641422,0.05154090476190477,0.0007481612903225813,2.567627,0.9987799999999999,2.5387478995181314,0.29092003691127677,-1.5487104538090073
-0.0843124375,-0.758545,0.30835,0.17039285056922765,-0.4065019214417075,0.07436601587301588,0.0006418387096774175,0.758545,0.005127,2.421332217110787,-0.8695930751335353,3.0057996004063687,-1.034980765625,-1.350342,-0.822021,0.14902764600034624,0.6087502277200887,0.04669292063492063,0.0015947903225806432,1.350342,0.822021,2.699458841807767,-0.2985232515773714,-0.9478087040659604,0.292774125,-0.395264,1.491943,0.48142126788204814,-3.77454815009715,0.14961555555555556,0.0010080645161290344,1.491943,0.001465,2.4972841356026847,0.9872842494252173,-0.028856316993393083,17.873687984375,-104.427481,196.870229,91.61671221190505,-1.885233916539651,11.940748841269842,0.21398669354838712,196.870229,0.633588,2.6553165777428256,0.666531417255349,-0.851918542045496,7.353292015625001,-85.770992,217.839695,51.69493881495383,-2.539782855723529,17.747606984126985,0.04961832258064524,217.839695,0.59542,2.9780750418855737,1.4618110385057987,2.986036880271757,-9.051407484375,-52.572519,30.938931,24.503393840673656,-0.5885000678776682,4.242336142857143,0.14725437096774197,52.572519,0.763359,2.6514282626009176,-0.09863614934490239,-1.0053906940310782,93.70227824029355,8.74185423028124,220.5914829526182,56.65349353560304,25.23394661380912,16.357108307097825,0.26201022116528416,220.5914829526182,8.74185423028124,1.1748169355023248,0.8268134959167032,1.878541528516471,0.25178071940916136,2.2720257201821528,0.07448465589176079,0.001211140935346445,1.878541528516471,0.8268134959167032,131.47399814062499,12.32061,281.442749,73.93404245656805,22.843247939834146,22.169635333333336,0.4108593870967743,281.442749,12.32061,2.7102633052197564,0.38456041425639503,-0.7375426504123004,1.569095609375,0.9125979999999999,3.087403,0.49385139969565034,3.383092007652877,0.152495,0.0004252741935483947,3.087403,0.9125979999999999,2.562357528766628,0.9552237891238133,0.3821599722083553
-0.12625503125,-0.437256,0.178223,0.1408311857096288,-0.4075941782388349,0.05995398412698413,-0.0005434032258064513,0.437256,0.009033,2.8589455377896464,0.358865184525202,-0.06425220034335766,-0.9962769375,-1.178955,-0.858887,0.09640179644112128,0.728515507377296,0.030374158730158727,0.000303209677419355,1.178955,0.858887,2.5637106069192064,-0.2895806157021358,-1.442091627453515,0.242942890625,-0.314697,1.199463,0.40848003621459483,-3.811485333511282,0.11788509523809523,-0.000622177419354839,1.199463,0.005371,2.655585166129794,0.8575566163725311,-0.3419482449676714,18.904341734375,-102.053435,156.473282,75.65407827212793,-1.533248557483636,10.11111107936508,-0.12189116129032256,156.473282,0.282443,2.864577090455906,0.44802225293417797,-1.0092034012963493,4.75500953125,-89.648855,118.862595,44.82912110226769,-1.3258685233626242,16.375136317460317,-0.2436591935483874,118.862595,0.580153,2.5813080505649095,0.6326522215374359,0.1716163851161676,-6.69215171875,-44.312977,28.083969,21.87925688334601,-0.6337639874657937,3.1865987777777782,-0.038167951612903275,44.312977,0.251908,2.5736039590971016,-0.2979587928920857,-1.0715995171287656,79.77974516449169,10.835708098855976,187.90590003713476,46.664404218717486,17.34135861937566,11.63355977004104,-0.30012367313739424,187.90590003713476,10.835708098855976,1.1096669895383866,0.8701874523486305,1.5006526839658803,0.17190304997216316,1.7245165738894856,0.04971443714670739,0.00022906840000598067,1.5006526839658803,0.8701874523486305,115.559040984375,17.137405,264.648854,64.63240795099462,15.442761258195155,19.45207795238095,-0.40371830645161255,264.648854,17.137405,2.6616416593001775,0.5254083829221177,-0.449397542780801,1.489940859375,0.947266,2.3869629999999997,0.37194072751664986,2.519844478741979,0.11381996825396826,0.00022443548387097507,2.3869629999999997,0.947266,2.822731627669065,0.8946405153009097,-0.0888549438584243
0.15094,0.002686,0.31665,0.06708035599710553,117.88905435591958,0.022991841269841266,2.362903225806442e-05,0.31665,0.002686,2.900570553589736,0.20178016372435778,-0.08709474272206608,-0.99982075,-1.196533,-0.776123,0.108947984346106,0.6486432049930925,0.013977968253968253,-0.000141758064516128,1.196533,0.776123,2.6160215883854274,0.246735753923234,-0.4360440693199794,0.422435734375,-0.006836,1.070801,0.3510281341442158,-156.6414569923932,0.03463696825396826,0.0003504516129032258,1.070801,0.006836,2.7852663600411947,0.560044663840317,-1.0663992971526144,45.260496171875,-45.549618,131.908397,62.03777127149196,-2.895927623366677,5.1115957777777785,0.014282177419354962,131.908397,1.564885,2.665416267428086,-0.11238271321651536,-1.4692771964455658,18.46278628125,-37.778626,121.419847,44.48860588125836,-3.2139826101669233,5.190355,-0.002708693548387019,121.419847,0.770992,2.5014179267370946,0.9308105293626652,-0.10656187467524525,0.100906484375,-6.946565,13.015267,6.184931755624741,-1.8736263174676981,0.6431600952380951,-0.003078048387096788,13.015267,0.183206,2.3957992892967446,0.8781008004081527,-0.3526208559137962,76.70951467051941,13.2621366208735,170.24935611237228,48.12220479715123,12.837249455296211,5.4881573473180945,0.017929310537850872,170.24935611237228,13.2621366208735,1.1532759198622957,1.0050273455035938,1.3357226547236516,0.09149265100218228,1.3290411058958347,0.013005035572720333,-0.00013581743532004568,1.3357226547236516,1.0050273455035938,104.30367371875,16.21374,247.08397000000002,67.07218245559834,15.23917183820636,8.648491476190477,0.004555500000000264,247.08397000000002,16.21374,2.788511398537416,0.7915245871652187,-0.6083717062624201,1.573410109375,1.142578,2.105957,0.2663119297140171,1.8431625674571013,0.03676049206349207,1.180645161290608e-05,2.105957,1.142578,2.6321565507880154,0.41815406136366734,-1.0500633667499821
0.12042996875,-0.131348,0.239258,0.07988293366416044,-1.8215579985991412,0.02355374603174603,-0.0007875483870967738,0.239258,0.010254,2.721450907664308,-1.0608881828379764,1.32111369100135,-0.95475003125,-1.01709,-0.852295,0.04516662187520836,0.8379740239310188,0.011614031746031749,-0.00021656451612902993,1.01709,0.852295,2.5639086034861682,0.7909824703598154,-0.6145248725876415,0.31739046875,-0.309082,1.08667,0.40480121127877183,-3.5157983965420176,0.0286768253968254,-0.0009056935483870978,1.08667,0.001709,2.7069035660410097,0.4580900472708752,-0.9891227567522485,52.8128578125,-61.427481,120.854962,53.552289189973315,-1.9674412825100218,4.542711746031747,-0.0025855645161289914,120.854962,0.992366,2.620581880553463,-0.37784821134837626,-0.9744597926209466,21.672471328125,-23.969466,92.419847,31.1071124231968,-3.855732413896914,4.49812188888889,-0.03656735483870965,92.419847,1.48855,2.6796511455945256,0.5999365278313784,-0.46652040332630307,5.4439408125,-2.091603,8.946565,2.3340113593544176,-4.2773724267941855,0.406761253968254,0.011450370967741937,8.946565,1.259542,2.462322163913392,-0.9117937914768316,0.9539984683067093,71.51420663943755,13.399299336427447,143.0420214919662,44.566986151354286,10.675335918729047,4.791072083872609,-0.056744785829786,143.0420214919662,13.399299336427447,1.0854263049789779,0.8956489585959445,1.389677222679425,0.13608891543968887,1.5515869351960607,0.01693096045471786,-0.00015275602653333587,1.389677222679425,0.8956489585959445,97.679508515625,20.946565,205.38931300000002,62.394802979560254,9.805393533498215,6.749424476190478,-0.14910119354838694,205.38931300000002,20.946565,2.55575207115867,0.3420714838136468,-1.4279265374099321,1.468048125,1.096435,2.078126,0.30329681143093906,1.8953481054508476,0.03134676190476192,-0.0009883870967741864,2.078126,1.096435,2.392512367147204,0.6735654201065816,-1.065952545622257
0.0987930625,-0.057617,0.200684,0.06919497019427427,-3.48306923303886,0.020058285714285713,-0.00022445161290322621,0.200684,0.006836,2.6448748039553562,-0.41190050887630003,-0.8493588575545354,-1.080837234375,-1.324463,-0.881348,0.1179159207031081,0.665437992605305,0.016861222222222215,-0.00021658064516129024,1.324463,0.881348,2.7025606652458234,-0.3892112950350413,-0.5800351642655057,0.24945828125,-0.238281,0.808594,0.3514284952461414,-3.393447232469228,0.03419519047619047,-0.0007757419354838714,0.808594,0.010254,2.7135675190649136,0.15347513997650813,-1.434489777548872,45.29890265625,-47.091603,115.519084,56.91445240744681,-2.4530718140981524,4.552647523809523,0.04752524193548388,115.519084,0.458015,2.622255550969431,-0.272280026154321,-1.4363584958562827,33.774928390625,-67.480916,131.358779,65.23630814571418,-1.9466063412654329,4.7974070158730155,0.026348177419354874,131.358779,2.458015,2.7288657276281194,0.1037404953442629,-1.4111007766680286,0.37070609375,-6.709924,7.862595,3.3111934457935286,-1.1717859993645232,0.8596873968253965,-0.0052942580645161256,7.862595,0.007634,2.5335850603273635,0.18595512003941467,-0.5883476134404315,90.80402343943176,8.181126795188362,157.71870050905585,48.71652237231487,19.278359137743266,3.7973561819364012,0.06504844999522405,157.71870050905585,8.181126795188362,1.171794377203916,0.96933049025139,1.3290599658905538,0.08474128443955432,1.3711112765532323,0.01338476868803625,-0.000164464368384977,1.3290599658905538,0.96933049025139,123.840529609375,11.908397,225.572519,68.90424836746853,18.942307600258875,5.782260952380953,0.11364196774193575,225.572519,11.908397,2.6886862104109,0.07628290961168056,-1.4166249324937488,1.529041328125,1.193603,1.8164060000000002,0.19171319459158187,1.5217840437733485,0.02313120634920638,-0.0010277419354838746,1.8164060000000002,1.193603,2.7329582048754903,-0.10138841886130584,-1.3622253465058638
0.1122513125,-0.388428,0.41626,0.12407203798112483,-1.0716529189450812,0.08491061904761904,0.00019690322580645156,0.41626,0.004639,3.029888479526278,-1.1664094484442078,4.350908314589834,-1.0034408125,-1.81665,-0.661377,0.16892809051217988,0.3640640739823301,0.0725911111111111,0.00010632258064516197,1.81665,0.661377,3.1083163690494073,-1.4610350241541126,7.118268426702743,0.196460703125,-0.575928,1.106934,0.34843273831233357,-1.9220006667500107,0.15793196825396827,-0.0008308709677419351,1.106934,0.000244,2.8026073733040717,1.1028193800132433,1.0608239383446998,-7.43308678125,-90.251908,160.038168,68.2813008696788,-1.7732386111992227,9.955167746031746,0.01920709677419357,160.038168,1.48855,2.6228628670411114,1.2651042138746624,0.4184479210392893,13.99666028125,-96.961832,85.603053,41.44983227233417,-0.8828530900695029,11.326669000000003,0.04235409677419373,96.961832,0.198473,2.338638351662371,-0.24021213330468077,-0.1251472208422535,-8.800930328125,-41.885496,5.931298,9.883575994337532,-0.14160744330209196,3.548285476190476,-0.0028318064516128865,41.885496,0.10687,2.662187501547665,-1.097447164107227,1.167885847591572,69.83516838306305,3.984718129451442,170.17026927199973,43.09961486071074,42.70572315121981,9.044855865372847,0.07701168462671337,170.17026927199973,3.984718129451442,1.0831492473579396,0.7132636833443856,1.9057774083572825,0.21997034501995427,2.6719114583562984,0.09626911495359664,7.034821676720419e-05,1.9057774083572825,0.7132636833443856,98.264074359375,6.717556999999999,237.465649,63.14805885945914,35.350001347215965,14.430994793650793,0.16929325806451576,237.465649,6.717556999999999,2.584946334655121,0.7816994842577321,-0.3233253767968929,1.402118671875,0.9138180000000001,2.414062,0.39580185989481165,2.6417317233847437,0.15824569841269842,-0.0009214516129032278,2.414062,0.9138180000000001,2.6722575460837703,1.3867153710420441,0.8850704901455089
0.111740171875,-0.128906,0.22876,0.11069471245692979,-1.7746264720028548,0.023115793650793654,0.0002717096774193555,0.22876,0.000488,2.4091553828388537,-0.8831028849940034,-0.6546891434890023,-0.992393453125,-1.115723,-0.835205,0.0709693652733302,0.7485773798693761,0.03934542857142857,-0.0032604516129032257,1.115723,0.835205,2.564520669124814,0.5912043538869174,-0.5638107970280148,0.15359503125,-0.431152,0.687012,0.2941624722816022,-1.593433406316102,0.060926603174603175,-0.0016105322580645162,0.687012,0.002441,2.4366929418348517,0.33592956140284624,-1.1978032436818347,16.39014784375,-83.984733,79.427481,51.922622765985935,-0.9457371377247814,5.450139333333332,-0.3671509516129033,83.984733,0.412214,2.570607571517552,-0.28040392310044643,-1.3275334361957452,17.64062490625,-46.931298,37.885496,20.96582763348135,-0.8072543827788442,4.812674238095238,0.19194779032258066,46.931298,0.541985,2.68195484778322,-1.8102509191129337,2.4244157088825,-3.02158878125,-41.267176,22.725191,20.502964151577928,-0.550684422893391,1.2316733333333332,0.015267161290322602,41.267176,0.198473,2.878021199124103,-0.3969056162554173,-1.1849314999985787,59.834109669904265,24.80191186669338,96.82083856694288,22.743248913776064,3.9037651245331655,4.855656938825868,-0.3387705116616843,96.82083856694288,24.80191186669338,1.0552362664875141,0.8634511616872144,1.2623108742100735,0.09874285959890856,1.4619366215727512,0.03799142973528071,-0.0016999564603581967,1.2623108742100735,0.8634511616872144,90.54234253125,34.351145,152.114504,35.507678666161276,4.428222232475802,8.192414841269843,-0.1985963870967743,152.114504,34.351145,2.6509332248714297,-0.01578059875750816,-1.398463785749693,1.38645928125,1.0776359999999998,1.820801,0.20884480261048333,1.6896252537962728,0.06656915873015877,-0.0012128225806451597,1.820801,1.0776359999999998,2.694831297057709,0.2894214507820816,-1.1895721088434026
0.05005265625,-0.105225,0.320557,0.1005823018587927,-3.0463958184842004,0.025212333333333333,5.11935483870966e-05,0.320557,0.000977,2.585355303347038,0.5661391448260571,-0.30409637492094577,-0.968276953125,-1.155762,-0.802979,0.09811733334424175,0.6947615512536318,0.04138752380952381,0.0007520967741935475,1.155762,0.802979,2.681905229477838,-0.0041320858564659274,-1.280277926504259,0.269046734375,-0.198486,0.831055,0.2646641847726525,-4.186970365668108,0.07708255555555556,0.007788887096774195,0.831055,0.003418,2.710944918565894,0.04245938920354732,-1.1050073874372905,21.90088259375,-64.374046,75.099237,37.84523154248133,-1.1666073777621495,5.350660396825397,0.030288112903225885,75.099237,2.030534,2.6639980937525616,-0.7505614184238036,-0.19834440165317035,-5.759184171875,-124.282443,29.48855,27.30571208643525,-0.23727044052392823,8.530473777777777,0.38131003225806437,124.282443,0.320611,3.082210327945696,-2.5187141449665096,6.71006939141537,4.595896921875,-33.969466,20.122137,13.05874080106534,-0.5923595325284183,1.8110990317460316,-0.007264225806451646,33.969466,0.091603,2.6235901994471322,-1.2590163681755244,0.6772203323320376,47.47385369197959,10.017192863224757,140.4941838469807,24.520759930141825,14.025304869866755,8.128030899199663,0.17287530292916753,140.4941838469807,10.017192863224757,1.0434267212904054,0.8284747782147626,1.290920685776241,0.1108709839429349,1.5581894823134859,0.04760108085510427,0.002632717884036847,1.290920685776241,0.8284747782147626,66.6727099375,15.755725,214.27481,34.656196926956305,13.5998064195713,11.985217619047615,0.4383156935483871,214.27481,15.755725,2.653352561819813,1.9012073829619074,5.263216604739306,1.3605880625,1.004639,1.943848,0.21742151199126425,1.9348721281972927,0.09004914285714281,0.0051663387096774205,1.943848,1.004639,2.5734959891576143,0.28159670042738705,-0.47038098321915056
0.070468953125,-0.282959,0.348633,0.14498981403691116,-1.2320972296339752,0.04343379365079365,0.0008781129032258059,0.348633,0.003906,2.5889711370174595,-0.23079146095913594,-0.512333763240822,-0.97462084375,-1.228516,-0.770264,0.11536773026644986,0.6269873571040182,0.06356950793650795,0.00012599999999999886,1.228516,0.770264,2.6339373957452343,-0.36724280766821543,-0.6374119145541828,0.33907325,-0.322754,0.983398,0.3251657800686945,-3.0468963978757815,0.09438161904761905,-0.0009647419354838728,0.983398,0.002686,2.6085234419288654,-0.08521341822095957,-0.9048196413881642,12.336474234375,-88.0,88.633588,58.59854803115063,-1.0071998636363637,7.378529047619049,0.04974145161290304,88.633588,0.908397,2.634251540009353,-0.3038344411443069,-1.3699408977835952,2.41114028125,-163.832061,57.320611,44.569690130494486,-0.34987419831091543,12.810735365079365,-0.07178035483870987,163.832061,0.549618,2.7165699926245694,-1.609534158166321,2.610650768086689,-3.6123568593749997,-47.175573,22.328244,20.845708806541495,-0.473300960223631,2.68762873015873,-0.0076335806451612075,47.175573,0.40458,2.425870058859033,-0.49013024485808326,-1.1929375777833777,72.94026897818377,36.729995641498334,189.6727934070483,24.976495532887117,5.1639753856314625,9.835174084607408,-0.07804289147917017,189.6727934070483,36.729995641498334,1.0896845158176798,0.8242222899922084,1.5140557566232493,0.1435549477719077,1.8369507534642895,0.06460517447093064,-5.25150533093232e-05,1.5140557566232493,0.8242222899922084,106.2729005625,47.02290000000001,294.129771,39.43978795196485,6.255032569237541,15.05452558730159,-0.0390297741935485,294.129771,47.02290000000001,2.5483910758044224,2.2756411926916384,7.579147176783678,1.495597890625,1.0271009999999998,2.23413,0.2608528388400108,2.1751804350302457,0.09422660317460319,7.875806451612856e-05,2.23413,1.0271009999999998,2.2515818982619873,0.43602379444318956,0.4267015346820333
0.12959671875,0.041748,0.321777,0.0729846935119327,7.707602759413624,0.010571650793650788,-0.0005591612903225809,0.321777,0.041748,2.4513172378399926,0.7289288888869326,-0.5082831080770411,-0.95619584375,-1.067139,-0.833496,0.07350814458561476,0.7810566383573274,0.009471142857142865,-6.695161290322606e-05,1.067139,0.833496,2.749795259544199,0.14840332316268567,-1.387260031855274,0.339386,0.051514,0.588623,0.16125964355029515,11.426466591606166,0.014737555555555558,-0.00012208064516129144,0.588623,0.051514,2.672573065154532,-0.02771783916156709,-1.3508272773957888,52.2266221875,-1.687023,100.274809,34.51251089281364,-59.4389104357202,2.8605355555555554,-0.05257325806451611,100.274809,0.19084,2.721370407472074,-0.08045629232866026,-1.4116313685666635,42.83194175,16.122137,73.946565,16.037148659026855,4.586647849475539,2.248636873015873,-0.026963806451612993,73.946565,16.122137,2.709792910937005,0.05366585639786749,-1.0333375009209196,-11.916388359375,-18.557252,-2.21374,4.068522463181045,0.11929244696359138,0.5200532857142857,-0.011573499999999997,18.557252,2.21374,2.6705224018436096,0.2507873435454873,-0.7452434385774569,75.89152291695085,29.064870468573105,104.07002381483457,19.81861619691154,3.5806119943786463,1.87699882274378,-0.0467074832994118,104.07002381483457,29.064870468573105,1.0343805681004636,0.8785816961569367,1.2168232436167548,0.11271608409856065,1.3849858800147363,0.011759716955190682,-2.9968523382436245e-05,1.2168232436167548,0.8785816961569367,107.060353078125,32.832061,141.519083,29.75835993746322,4.310392911367946,2.592754095238095,-0.11795124193548392,141.519083,32.832061,2.460140951982518,-0.867702215170995,-0.28889364490056835,1.4251785625,1.125,1.877197,0.2619847213462134,1.6686195555555556,0.022937619047619047,-9.448387096774421e-05,1.877197,1.125,2.2492491703582806,0.6074699223320593,-1.397463590087172
0.063423125,-0.069336,0.431396,0.11536812199622784,-6.221818391600324,0.020829444444444442,-0.00034651612903225764,0.431396,0.001221,3.0020094697016404,1.6560786629678406,2.115213448259663,-0.972530375,-1.269043,-0.768799,0.1620264531834919,0.605810047413681,0.022526809523809522,-0.000362258064516126,1.269043,0.768799,2.77545465354879,-0.5036044063059548,-1.1279316835405484,0.381904625,-0.212402,0.876953,0.24192640329755674,-4.128741725595804,0.03874084126984126,-0.0009371935483870966,0.876953,0.013184,2.3115919015070645,0.36151118065699733,-0.24097717105706984,63.678554375,-26.229008,130.778626,46.73029532354608,-4.986030199845911,4.439597746031747,-0.04173849999999998,130.778626,1.580153,2.7287773994329494,-0.20956502149877393,-1.109972547297878,14.579437078125,-25.862595,37.740458,15.775032812380443,-1.4592680278216474,1.9803707301587299,-0.11191824193548384,37.740458,0.862595,2.4363297147092142,-0.9371267607780948,0.6914527781422026,-6.749880734375,-13.587786,-0.763359,3.948445273234543,0.05617979264613087,0.6584272698412698,-0.013420354838709675,13.587786,0.763359,2.779298864307422,-0.23340459203386568,-1.1680974371028656,71.28336971255884,11.454182435818062,136.07925073006962,40.837831315715746,11.88031109968529,4.311541582875657,-0.09429959228609112,136.07925073006962,11.454182435818062,1.06854886797807,0.8145517858853419,1.5616399120222946,0.22638722049895418,1.91717695434789,0.030438444937216133,-0.00019425596084165874,1.5616399120222946,0.8145517858853419,93.1937023125,15.862595,178.954199,51.86862977765362,11.281521024775579,5.889737142857144,-0.16707709677419355,178.954199,15.862595,2.9122253742617876,0.294688399849015,-1.3329467721955086,1.4463768125,1.029052,2.4182129999999997,0.41412393051278884,2.34994247132312,0.06206211111111109,-0.0009765483870967741,2.4182129999999997,1.029052,2.3137690304745235,0.9445582816476877,-0.3759890746949197
-0.8612175,-2.0,0.086426,0.45504782412942124,-0.043213,0.16823619047619046,0.00015751612903225533,2.0,0.0,2.8443042153701446,0.23831431542347326,0.5581994701022288,-0.555988390625,-1.479004,0.065186,0.4517047877464519,-0.0440742553772674,0.1266004761904762,-0.0004567741935483815,1.479004,0.0,1.7898505541228948,0.1796253723751936,-1.120139604939446,0.23389048437499999,0.0,1.156982,0.31360355730757905,0.0,0.09199057142857142,-0.0022169677419354894,1.156982,0.0,2.3114202971806317,1.7929756034938495,1.9852947725795804,43.12118321875,0.0,127.51145,43.72424471433794,0.0,13.64788565079365,-0.3475744838709678,127.51145,0.0,2.283813932010215,0.5749745340063885,-1.1053116427975902,14.5969705,-85.740458,100.21374,31.562120819932513,-1.1688034136696588,12.083969476190473,-1.0460477580645162,100.21374,0.0,3.0034944197073714,-0.5857586578569731,2.7354584525672356,5.190362609375,0.0,16.687023,4.5312729637640805,0.0,4.230219349206348,-0.05725190322580637,16.687023,0.0,2.3964968744550874,0.8929441511857619,0.1920040513443535,58.12815261968473,1.799407257486198,137.39086262745505,40.35798220478828,76.35340029660233,16.69389592452292,-0.7654059617762009,137.39086262745505,1.799407257486198,1.2045404185729427,0.5426599489007826,2.227095712017335,0.39821638936526255,4.104035531880623,0.13433237448947863,-1.4833943619525645e-05,2.227095712017335,0.5426599489007826,72.784470515625,2.603054,199.908397,50.332912725866954,76.7976373137092,22.421543968253964,-1.5119428548387084,199.908397,2.603054,2.5882505485002785,0.5965588367932827,-0.610332033281562,1.674503375,0.743409,3.3601069999999997,0.6586923865342896,4.5198632246852,0.27727409523809515,-0.001311290322580635,3.3601069999999997,0.743409,2.3409614107818753,0.6921961625902544,-0.1858333980123592
-0.279209125,-1.339111,0.199463,0.4378495228057854,-0.14895180459274848,0.14180690476190477,-3.1499999999997926e-05,1.339111,0.0,2.4387690304745235,-1.313734479465324,0.08584865576981704,-0.6185074375,-1.220703,0.194824,0.4723562543118824,-0.1595998371430233,0.08812315873015872,0.002913935483870965,1.220703,0.000244,1.885115727628119,0.8298428642608221,-1.0763996230779067,0.264999359375,-0.148193,1.233398,0.300771589359047,-8.322916736957886,0.10865031746031749,-0.00015749999999999635,1.233398,0.0,2.891081066302816,1.4432372950961072,1.1114420563045755,16.884899765625,-62.778626,109.740458,44.03086478502616,-1.748054473189649,12.483097047619047,-0.027333193548387362,109.740458,0.045802,2.6084723721296093,0.5295263087155162,-0.45963225765637583,8.626073468749999,-230.59542,129.282443,58.2449566598737,-0.5606461871619133,22.158487857142852,0.5153903064516132,230.59542,0.122137,2.924093168070543,-1.9656260197158202,4.510415415128232,-1.5031010781250005,-132.320611,32.847328,22.294226875673218,-0.24824044985705207,8.878831920634921,0.020561435483870027,132.320611,0.007634,2.569963645162677,-3.225095698621313,16.70285141475336,65.6126757983339,5.8128455964635775,231.16623502678962,42.68932307907902,39.76817054411813,23.791250488612775,0.44443732585916085,231.16623502678962,5.8128455964635775,0.9271435644234557,0.06070607758700936,1.7784016119721102,0.4137811262039398,29.295281175482742,0.15446739786895541,0.002075494600761593,1.7784016119721102,0.06070607758700936,90.78983775,7.847328,292.87023,55.85835023235039,37.32101296135449,32.29637707936508,0.5475252258064517,292.87023,7.847328,2.584069001524665,1.2312605386156563,1.849390863033598,1.253765078125,0.084716,3.0178230000000004,0.6907553165923149,35.622822135133866,0.24775244444444447,0.0035675806451612815,3.0178230000000004,0.084716,3.0277145644232903,0.7558232807709288,0.6359013075957125
0.1391754375,-0.302246,0.905762,0.21798029124218496,-2.996770842294025,0.08804565079365077,-0.0008505483870967732,0.905762,0.003418,2.5368944328966934,0.9150536877907327,1.2487726638923107,-0.99040225,-1.619141,-0.59668,0.17881888657397338,0.36851639233395983,0.07302509523809524,0.0016341451612903242,1.619141,0.59668,2.83528317627746,-0.9568875240068531,2.136176341524803,0.3902283125,-0.427002,1.050537,0.35356131198497337,-2.4602624812061773,0.09438165079365078,-0.0008111935483870959,1.050537,0.025879,2.527394272963496,0.17358288898396287,-0.3783629829812436,3.549737640624999,-140.59542,92.465649,77.63360584328565,-0.6576718430799524,7.416696952380952,-0.08323074193548381,140.59542,1.717557,2.5590626485306776,-0.4458536217856194,-1.2702319873170471,9.6581584375,-101.961832,96.40458,53.90940338014116,-0.9454967423496274,14.162244000000001,0.2261758387096774,101.961832,2.916031,2.573248639566527,0.13098214999273686,-1.2289868050396173,-10.04389309375,-61.458015,29.244275,27.63188765477648,-0.4758415155452059,3.490246015873016,-0.04198474193548379,61.458015,1.473282,2.6257158161281486,-0.2984090120258049,-0.9601466574414701,91.89280974125816,24.382723852123764,169.4705908432351,36.44776123784392,6.9504371977076715,9.147507565900208,0.12916119162314801,169.4705908432351,24.382723852123764,1.1506987012218732,0.801366137305539,1.624605654715322,0.17381322051489453,2.0272951140383717,0.06836050731147437,0.0018294929973260504,1.624605654715322,0.801366137305539,140.464098296875,33.465648,283.763359,58.098495635928394,8.479242923967885,16.699866809523808,0.20192070967741924,283.763359,33.465648,2.599147010039549,0.16014467527082432,-0.5383305640158831,1.61232765625,1.211426,2.812989,0.27590013759704884,2.322047735478684,0.1080767777777778,0.0021775645161290383,2.812989,1.211426,2.43577010669241,1.6396228320606046,4.3534196034069526
-0.009544328125000001,-0.345947,0.270752,0.18392611119255042,-0.7826401153933984,0.03646220634920635,0.00042920967741935493,0.345947,0.003174,2.560841932958393,-0.3930659409873114,-1.190505644156672,-1.077354453125,-1.324707,-0.751221,0.16288203611202118,0.5670846458877321,0.03178477777777778,0.0005000806451612931,1.324707,0.751221,2.7122598946909635,0.272725859166745,-1.2442474901760159,0.48720934375,-0.035889,1.287598,0.34108613918063246,-35.877232578227314,0.06632879365079365,0.0008544838709677434,1.287598,0.020264,2.4825862103428697,0.4656828966796133,-0.4701471112109963,62.9469226875,-76.099237,173.328244,89.12017463501776,-2.2776607339703028,5.402277952380953,0.054789467741935556,173.328244,0.19084,2.5296510799907352,-0.24677844729420992,-1.5351773518364913,36.346016234375,-86.129771,114.358779,69.24110051708536,-1.3277497161811795,7.706530984126984,0.07338093548387109,114.358779,4.412214,2.261971773611644,-0.3774266789403383,-1.4760609104890523,11.789837765625,-28.076336,55.740458,30.15416743205051,-1.985318098486925,2.0205985714285712,0.02240827419354845,55.740458,3.335878,2.372005356735001,0.31580086540378405,-1.5489563827035422,122.60853175605423,17.56898528446541,206.7001958502925,62.31338418705428,11.765061698415668,6.526203542269243,0.0906996901869629,206.7001958502925,17.56898528446541,1.248505028373845,0.9282372054173438,1.5766198624833445,0.11636855818232951,1.6985096624892149,0.0410336203218602,0.0004946766293214555,1.5766198624833445,0.9282372054173438,189.59184153125,27.442748,329.038167,100.80185776226655,11.989986097602177,9.89106992063492,0.17052451612903335,329.038167,27.442748,2.685000195759417,-0.05593349190684531,-1.3766674312578862,1.72210321875,1.0837409999999998,2.292237,0.27580139971078393,2.115115142824716,0.06809971428571433,0.0008938709677419323,2.292237,1.0837409999999998,2.5447129729115723,-0.34826792739877294,-0.4601947171301144
0.044090296875,-0.108398,0.269043,0.09874053976122998,-2.481992287680584,0.02736312698412698,-0.00018901612903225785,0.269043,0.000244,2.599272632598503,0.3326524583286328,-0.857636870309717,-1.01074228125,-1.226807,-0.842285,0.09037236307008915,0.6865668356962423,0.022054015873015868,5.512903225806145e-05,1.226807,0.842285,2.641935454418839,-0.210059566698831,-0.22571023056929862,0.56556696875,-0.130615,1.079834,0.2986668855998862,-8.26730467404203,0.03635761904761904,-0.0009804838709677425,1.079834,0.01123,2.322799302554097,-0.015847296663544407,-0.3813399750746256,67.2447519375,-55.793893,136.70229,66.54303291712044,-2.4501299810715844,3.940506492063492,-0.08544691935483867,136.70229,2.877863,2.374380968945375,-0.7213119671213118,-1.0919641983971533,44.4663645,-45.80916,140.351145,49.288821710876455,-3.0638227158061837,6.890706380952382,-0.04912583870967745,140.351145,2.916031,2.5737397047844603,0.17125792076367147,-0.542470979208546,21.601383578125,-1.137405,42.725191,16.358201925746222,-37.56374466438955,0.9875196666666667,-0.002585564516129031,42.725191,0.21374,2.335905550767371,-0.12198305295808565,-1.7695271423818348,107.97548742152503,15.115621449356457,171.4092861895463,48.55399522355258,11.339876879282658,4.462734048539358,-0.1250515371840197,171.4092861895463,15.115621449356457,1.1974438348105394,0.9725256098478847,1.418704736211168,0.12337356573301066,1.4587839351943352,0.025262624102602358,-4.0034593096638726e-05,1.418704736211168,0.9725256098478847,160.309398796875,20.412213,263.679389,76.94079201323923,12.91772670606563,7.093178285714284,-0.1856685806451613,263.679389,20.412213,2.298856944636572,-0.5064487193645077,-1.2921753430127136,1.669837984375,1.395751,2.1008299999999998,0.2230263952010985,1.5051610208411097,0.04930104761904761,-0.001122241935483872,2.1008299999999998,1.395751,2.4466797137433702,0.5959289518824326,-1.2297038344513387
