AccX_mean,AccX_min,AccX_max,AccX_std,AccX_max_to_min,AccX_mean_abs_change,AccX_mean_change_of_abs_change,AccX_abs_max,AccX_abs_min,AccX_entropy,AccX_skew,AccX_kurtosis,AccY_mean,AccY_min,AccY_max,AccY_std,AccY_max_to_min,AccY_mean_abs_change,AccY_mean_change_of_abs_change,AccY_abs_max,AccY_abs_min,AccY_entropy,AccY_skew,AccY_kurtosis,AccZ_mean,AccZ_min,AccZ_max,AccZ_std,AccZ_max_to_min,AccZ_mean_abs_change,AccZ_mean_change_of_abs_change,AccZ_abs_max,AccZ_abs_min,AccZ_entropy,AccZ_skew,AccZ_kurtosis,GyroX_mean,GyroX_min,GyroX_max,GyroX_std,GyroX_max_to_min,GyroX_mean_abs_change,GyroX_mean_change_of_abs_change,GyroX_abs_max,GyroX_abs_min,GyroX_entropy,GyroX_skew,GyroX_kurtosis,GyroY_mean,GyroY_min,GyroY_max,GyroY_std,GyroY_max_to_min,GyroY_mean_abs_change,GyroY_mean_change_of_abs_change,GyroY_abs_max,GyroY_abs_min,GyroY_entropy,GyroY_skew,GyroY_kurtosis,GyroZ_mean,GyroZ_min,GyroZ_max,GyroZ_std,GyroZ_max_to_min,GyroZ_mean_abs_change,GyroZ_mean_change_of_abs_change,GyroZ_abs_max,GyroZ_abs_min,GyroZ_entropy,GyroZ_skew,GyroZ_kurtosis,total_angular_velocity_mean,total_angular_velocity_min,total_angular_velocity_max,total_angular_velocity_std,total_angular_velocity_max_to_min,total_angular_velocity_mean_abs_change,total_angular_velocity_mean_change_of_abs_change,total_angular_velocity_abs_max,total_angular_velocity_abs_min,total_linear_acceleration_mean,total_linear_acceleration_min,total_linear_acceleration_max,total_linear_acceleration_std,total_linear_acceleration_max_to_min,total_linear_acceleration_mean_abs_change,total_linear_acceleration_mean_change_of_abs_change,total_linear_acceleration_abs_max,total_linear_acceleration_abs_min,L1_norm_gyro_mean,L1_norm_gyro_min,L1_norm_gyro_max,L1_norm_gyro_std,L1_norm_gyro_max_to_min,L1_norm_gyro_mean_abs_change,L1_norm_gyro_mean_change_of_abs_change,L1_norm_gyro_abs_max,L1_norm_gyro_abs_min,L1_norm_gyro_entropy,L1_norm_gyro_skew,L1_norm_gyro_kurtosis,L1_norm_acceleration_mean,L1_norm_acceleration_min,L1_norm_acceleration_max,L1_norm_acceleration_std,L1_norm_acceleration_max_to_min,L1_norm_acceleration_mean_abs_change,L1_norm_acceleration_mean_change_of_abs_change,L1_norm_acceleration_abs_max,L1_norm_acceleration_abs_min,L1_norm_acceleration_entropy,L1_norm_acceleration_skew,L1_norm_acceleration_kurtosis
-0.06920623437500001,-0.913574,0.918945,0.5272484176029524,-1.0058791077679532,0.06962274603174604,-0.0009332419354838709,0.918945,0.028076,2.5817388913262778,0.6041702835856747,-0.9844055559279874,0.250724796875,-0.077637,0.69873,0.1922919778836819,-8.99996135863055,0.03894234920634921,-0.0016065967741935485,0.69873,0.006836,2.419419904260601,-0.18905810704902742,-0.834250266853485,0.958427390625,0.513184,1.370361,0.1980884192273435,2.6703112333977677,0.06656119047619045,0.0009214354838709711,1.370361,0.513184,2.7514074527958883,-0.0011618689932231412,-0.32900026221353773,48.611641203125004,-24.641221,95.534351,30.612684312395373,-3.877013683696924,4.954683142857145,0.15784288709677424,95.534351,0.305344,2.673848324575485,-0.44889528452097704,-0.7592560446973331,-80.24856871875,-198.541985,62.854962,60.92401609100319,-0.31658272178552055,8.951169253968251,0.023885725806451607,198.541985,5.618321,2.4697774359534126,0.675241503737343,-0.3366036312074807,18.2849475625,-39.900763,115.137405,44.9607802028433,-2.8855940674618177,5.533018317460317,-0.0373060806451613,115.137405,0.549618,2.623743623165248,0.822336179249326,-0.5527162475511407,112.59369693736649,15.5873828995221,225.2800484991754,55.44434504292712,14.452717941899172,8.523610086095182,0.10194651470556006,225.2800484991754,15.5873828995221,1.1350675215216923,0.7852265901572616,1.5587243135981421,0.21741070467204035,1.9850630800543418,0.06818107551396607,0.0023237907347004342,1.5587243135981421,0.7852265901572616,175.097686046875,25.358777999999997,346.76335900000004,88.29284367764022,13.674292941087305,12.9117896984127,0.14442253225806417,346.76335900000004,25.358777999999997,2.773056373870728,-0.03283019338555573,-1.1483319162575283,1.694145140625,1.146484,2.432861,0.41985957832634563,2.1220191472362457,0.11940031746031747,0.000846629032258062,2.432861,1.146484,2.6098336456649025,0.3740887461320995,-1.4378335178763026
-0.132949828125,-0.736816,0.636475,0.4524772655924117,-0.8638181038413932,0.050052714285714284,-0.0018468225806451608,0.736816,0.038818,2.502248412939454,0.6083387887262919,-1.2295907940753867,0.1640090625,-0.148193,0.506592,0.18030017742509252,-3.418461060913809,0.031815809523809524,-0.0015475322580645171,0.506592,0.003418,2.78514545829783,0.058017935050859226,-1.1071786848871437,0.924076078125,0.606201,1.236084,0.1618699269643323,2.0390662503031174,0.06105846031746032,0.0007324193548387107,1.236084,0.606201,2.661138691469231,0.04602204458116834,-1.021313372863807,31.745228984375,-48.167939,75.267176,28.510751684370927,-1.5625990557744232,4.1449169841269855,-0.12878599999999993,75.267176,1.053435,2.141400193926528,-0.29538676995752944,-0.25109377801525756,-60.726145078125,-126.10687,30.694656,43.033915405551696,-0.243401933613926,5.473645952380952,0.03188870967741936,126.10687,3.908397,2.715127917035381,0.42699968532672244,-0.9077390369752143,25.550095453125,-33.633588,83.977099,37.13306468999707,-2.496822491849516,3.780322349206349,-0.05368135483870971,83.977099,1.007634,2.763139523739353,-0.014880679895184474,-1.251204573607732,85.3053201909473,7.9022499722751744,162.73946698750703,45.65374004974329,20.594067203451417,5.806236683433225,-0.1595758571990606,162.73946698750703,7.9022499722751744,1.0649911567952586,0.8253384047952694,1.3420300211910314,0.15488466572133447,1.6260360761037538,0.057953879630640366,-0.0009879829853928607,1.3420300211910314,0.8253384047952694,136.701813078125,12.106871,271.48855000000003,77.9979218441082,22.424336560619174,10.028716841269842,-0.25671016129032265,271.48855000000003,12.106871,2.609039536928675,0.1546033950871695,-1.445261751646112,1.5605506875,1.191406,2.126952,0.2827200691020068,1.7852453319859058,0.08299225396825395,-0.004237032258064513,2.126952,1.191406,2.6664736975676067,0.6448012287315275,-0.8243161604754143
-0.357158671875,-0.871826,1.299072,0.3458208791746742,-1.4900587961359262,0.1366489841269841,-3.1500000000000617e-05,1.299072,0.043701,3.0423374089345563,2.7508606109547094,9.167155192290908,0.25842668750000003,-0.162354,1.393555,0.22663487635715868,-8.583434963105313,0.10572455555555559,0.002079129032258066,1.393555,0.057129,2.8160244138934787,2.560968704872586,9.383199786433533,0.803687109375,0.053955,1.999939,0.3248599049472267,37.06679640441108,0.11525185714285714,0.0006379032258064512,1.999939,0.053955,2.5078119235044936,0.9628360697727404,1.9092409481379633,2.973401703125,-70.48855,140.679389,37.12409319327304,-1.9957764629858321,13.068459999999998,0.0011081129032264254,140.679389,1.435115,2.313745852037884,0.8467897959794858,1.5823133527038324,-7.8740458125,-158.007634,150.122137,91.12389217430645,-0.9500942024104988,15.295892380952383,-0.045309032258064146,158.007634,3.641221,2.756968607433189,-0.005551178029739247,-1.1311011731416742,23.18976621875,-69.19084,78.618321,44.560067587355036,-1.136253310409297,4.657215571428571,0.03508988709677414,78.618321,4.343511,2.5371369978332594,-0.6195126471108228,-1.1233444150551073,101.14449873836269,44.20591179507749,169.4796974746168,43.50902365681756,3.833869511848618,10.518378366111914,-0.13045201893969594,169.4796974746168,44.20591179507749,0.9978644200940142,0.19037212337156928,2.5507027526913046,0.34430772080795313,13.39850975824244,0.14557160020080895,3.6026879431336825e-05,2.5507027526913046,0.19037212337156928,151.875715609375,55.809161,254.64122099999997,67.54510687922901,4.562713655559165,15.618441730158727,-0.3068209677419351,254.64122099999997,55.809161,2.5370963470519783,0.09349071025578526,-1.559709056038897,1.52513796875,0.299805,4.144715,0.5530852216850884,13.8247027234369,0.23435371428571428,0.001519983870967745,4.144715,0.299805,2.472752625454944,2.639115125663847,9.254333343156803
-0.09207915625,-0.592529,0.6604,0.3914237765119741,-1.1145446045678777,0.052505730158730154,0.0012797741935483872,0.6604,0.005859,2.4663713444412116,0.7414557647272964,-1.0192235306446153,0.519844109375,0.138184,1.300293,0.2719526268353342,9.409866554738608,0.04914977777777778,0.00020082258064516113,1.300293,0.138184,2.4142191923557093,0.5067953058139674,-0.413211872349037,0.98629,0.704102,1.447754,0.1721240112480736,2.056170838884139,0.039376349206349213,0.001964935483870966,1.447754,0.704102,2.773170544871055,1.036584189607636,0.687911552275374,16.608897921875,-47.267176,77.244275,29.013446167900735,-1.6342054156144215,4.817884380952381,0.02634817741935476,77.244275,2.061069,2.5379737639381306,-0.38367131206786553,-0.2832259501834451,-54.729604,-182.236641,109.541985,93.8264510230589,-0.6010974763302404,6.609717714285715,-0.1029303225806452,182.236641,0.145038,2.631795807252012,0.4990006754876099,-1.2531367925878034,31.6774809375,-123.167939,131.687023,80.69611890397857,-1.069166408638209,6.599176063492064,-0.11228761290322582,131.687023,2.137405,2.657454905367033,-0.5279729726593698,-1.0539163712453188,131.6955735510459,10.395328971871212,199.46743666133966,53.670519573623004,19.1881793448846,7.279551582266192,-0.14808727790847412,199.46743666133966,10.395328971871212,1.1989941606598922,0.774394506489425,1.872049398947314,0.26027083245403054,2.417436310897795,0.04987748175229577,0.002148232162030415,1.872049398947314,0.774394506489425,204.794847390625,12.999999,295.633587,81.03644050716547,22.74104690315745,11.247909777777778,-0.26446688709677524,295.633587,12.999999,2.4698983376967774,-0.9612973083397743,-0.4046774209609314,1.876998984375,1.126709,2.8688969999999996,0.4643106454592755,2.5462626108427284,0.09226566666666668,0.0028312419354838752,2.8688969999999996,1.126709,2.427049867647083,0.3938801931782366,-1.2854105694469902
-0.254177109375,-0.97998,0.430908,0.36630325586149776,-0.43971101451050026,0.06060114285714286,-0.00229964516129032,0.97998,0.005615,2.456159261333025,0.42417857737385833,-1.0894034724204273,0.34037015625,0.143066,1.166504,0.16413516435337225,8.153607425943271,0.054083031746031754,-0.00415433870967742,1.166504,0.143066,1.966909991959334,2.1609307631265313,7.920518220396811,0.880660921875,0.253418,1.341797,0.2573121706250746,5.2947975281945245,0.061740460317460326,0.0006024677419354851,1.341797,0.253418,2.536486969811048,-0.5178391842912522,-0.25173839187212277,6.842318687500001,-32.931298,35.442748,19.357994855760744,-1.0762633164353255,7.114503857142855,-0.02831814516129032,35.442748,2.114504,2.687779624627409,-0.2032434130273666,-1.2313134519313376,-83.676168921875,-139.916031,70.022901,44.39990201059511,-0.5004637460020575,10.999030666666666,-0.5012312096774194,139.916031,0.725191,3.0262989701098526,1.5716399685514515,2.281639393799721,35.61653146875,-2.687023,66.473282,19.065787216543633,-24.738635285220855,4.757179174603174,-0.4805466612903225,66.473282,2.687023,2.6524723002903188,-0.18346197926884197,-1.098038607187428,100.98518066053549,38.194962261761425,151.77359859776632,28.262701825887785,3.9736548908627465,9.617370562728851,-0.3298438074025409,151.77359859776632,38.194962261761425,1.0662059062623777,0.7456104550500884,1.6306568478944306,0.2090096420093116,2.187009096841174,0.06441108894817922,-0.00095324917762434,1.6306568478944306,0.7456104550500884,142.566316828125,50.725191,220.580153,40.59078409209025,4.348532724105464,11.585847634920633,-0.13568085483870948,220.580153,50.725191,2.6156103411350182,-0.2965815471427462,-0.7896539268396707,1.6134528125,1.131592,2.433593,0.27833964009768775,2.150592262935758,0.10181825396825397,-0.005339612903225803,2.433593,1.131592,2.4112371427928054,0.5493493693483427,-0.042483406577491056
-0.65265746875,-1.514404,1.999939,0.5254419378792944,-1.3206112767795117,0.1880134761904762,0.0022523870967741935,1.999939,0.386475,2.858165524693378,3.437413551483208,13.763559149614018,0.3418006875,-0.87915,1.277344,0.36185230060351903,-1.452930671671501,0.1596253333333333,0.004579596774193547,1.277344,0.026367,2.8845045605443,0.19659174086478676,1.9111310826171959,0.696974734375,-0.052002,1.999939,0.4174375611415643,-38.458886196684745,0.10359896825396823,0.002598919354838709,1.999939,0.051514,2.4737380413476315,1.3073200278828347,2.3377707419037677,-11.023020015625,-66.458015,74.396947,35.25536871241608,-1.1194578562119255,12.257361,0.04518591935483882,74.396947,1.725191,2.61270166800932,0.7939375639091935,-0.08474416721370881,-16.93893128125,-129.625954,250.129771,97.67127539055829,-1.9296272334474005,17.944868507936512,0.19650332258064526,250.129771,1.534351,2.393593750773832,1.4579329504821994,1.3802559419110763,17.978411265625002,-105.045802,119.519084,68.21190106739243,-1.1377806797076957,10.613231555555556,0.23799556451612902,119.519084,1.282443,2.4428916593001775,0.08084826788386869,-1.3274297927082512,112.23547020697706,9.053016567227413,267.40478142897,58.15499775259326,29.53764410384435,13.216264584336992,0.13700501284465338,267.40478142897,9.053016567227413,1.1842566295685484,0.6581840644872832,2.5364077628526136,0.44882625094858225,3.8536450511430145,0.1233742206927066,0.00187832713672424,2.5364077628526136,0.6581840644872832,168.9425095625,15.145038000000001,369.022901,80.1209677235382,24.365927705166534,20.469405095238095,0.1713863548387098,369.022901,15.145038000000001,2.8979792966721747,-0.13089277607479033,-0.275389626904897,1.876581109375,0.7570799999999999,4.231689,0.7553279148371428,5.589487240450152,0.21243333333333325,0.00423306451612903,4.231689,0.7570799999999999,2.8948767317010464,1.840603828561315,2.9524108656905614
-0.490590140625,-1.950684,1.999939,0.532129597696731,-1.0252501173947188,0.16773817460317458,0.013959322580645164,1.999939,0.029297,2.96026692691851,2.0378424032542632,7.424129496857464,0.14972684375,-0.283691,1.675293,0.2979219927659885,-5.905344194916299,0.09137834920634921,0.001476645161290322,1.675293,0.005127,2.3782203235592765,2.3942570289380636,9.800780036017406,0.78262609375,0.159912,1.999939,0.41734067131992875,12.50649732352794,0.07289536507936507,0.005893838709677416,1.999939,0.159912,2.51152627200578,0.3800853713450297,-0.13236737976107138,24.554270140625,-61.160305,87.458015,43.661996539604864,-1.4299800336182105,7.483581698412698,0.06587046774193552,87.458015,0.007634,2.6868275368319305,-0.724118292347187,-0.8251223266634105,-59.6739026875,-153.725191,159.10687,84.4002613487359,-1.0350084391828793,11.091602984126984,1.8193794516129032,159.10687,4.251908,2.229694286084788,0.8739251531936224,-0.5756285557799949,19.55427,-93.625954,70.717557,41.13157523615207,-0.7553200152171481,8.29601353968254,0.01255846774193534,93.625954,0.358779,2.404373046501144,-0.6688546971287703,-0.6024112779317665,116.2333626971081,16.57975534395921,171.25796164217047,40.19151054318159,10.329341904587745,10.25162837848471,1.6823167580843132,171.25796164217047,16.57975534395921,1.1134311037363076,0.47259736061366237,2.960989292863282,0.41974329792329595,6.265353003703767,0.11274003117681361,0.013597637461033488,2.960989292863282,0.47259736061366237,179.174856859375,24.809160000000002,257.534351,60.62637560410538,10.380615506530653,16.894462571428573,2.302634806451613,257.534351,24.809160000000002,2.70421806304599,-1.0684992143670498,0.20347605544066294,1.651700921875,0.644531,5.075623,0.6744050215626823,7.874909042388962,0.1905421746031746,0.019888612903225807,5.075623,0.644531,2.8094412080002393,3.188563849952739,11.674690624143198
-0.64872746875,-1.396729,0.275635,0.5626338719023591,-0.1973432211975265,0.061372349206349215,-0.00027958064516128857,1.396729,0.006592,2.643494400895432,0.22072101434233946,-1.3844871026679924,0.10190196875,-0.466309,0.362549,0.2322173414836735,-0.7774866022315675,0.033730142857142854,0.0002559677419354838,0.466309,0.001465,2.444254493364973,-0.9735970016948008,-0.21352873047497978,0.78981015625,-0.055176,1.250488,0.4028655153549745,-22.6636218645788,0.05078507936507937,-0.002295725806451613,1.250488,0.004639,2.667625427649751,-1.1158283865440828,-0.11156478807108616,30.46302484375,-94.442748,94.366412,55.083697094340394,-0.9991917219520127,6.95419846031746,-0.06796354838709669,94.442748,2.267176,2.406406003080202,-0.7058597420917041,-0.9272743165064612,-86.151956109375,-208.305344,220.496183,119.38443793569387,-1.0585238898143678,12.82903188888889,0.02142329032258027,220.496183,3.015267,2.360150193926528,0.8898125036098482,-0.19359239865193656,33.07347325,-49.641221,113.824427,46.80519524251908,-2.2929417267959624,4.886950206349207,-0.10662396774193549,113.824427,0.29771,2.620332264669372,0.4019148026695894,-1.0861561686399979,152.39123784576154,25.799885260011408,247.7019629307841,74.02559792777186,9.600893974311985,12.169556336368798,-0.07481936308588495,247.7019629307841,25.799885260011408,1.2333886412370774,0.8712624357390831,1.6890591226748104,0.24324065790047056,1.9386341627847166,0.04893377343652379,5.807703418219696e-05,1.6890591226748104,0.8712624357390831,229.218749953125,36.305344,398.259542,120.44518692476532,10.969722308649658,18.913243698412707,-0.22309777419354807,398.259542,36.305344,2.6524268465116907,-0.050279121024179696,-1.3819220868777817,1.73569115625,1.157471,2.440186,0.3955226395531441,2.1082048707915795,0.0802796349206349,0.0005788548387096748,2.440186,1.157471,2.73295820487549,0.22638611455134122,-1.2055969138250362
-0.549068390625,-1.161865,0.379883,0.5034374974530892,-0.3269596725953532,0.05054098412698413,-0.00042527419354838577,1.161865,0.02832,2.5276279170353804,0.6623417434356905,-1.097819617525813,0.16638175,-0.296143,0.594971,0.2375042358907137,-2.0090665658144884,0.035904174603174605,-0.001134064516129032,0.594971,0.003174,2.4066000226563675,-0.41787742744957307,-1.1112820838118502,0.79852296875,0.101318,1.241943,0.37757302422020655,12.257871256834916,0.04056993650793651,-0.00011025806451613029,1.241943,0.101318,2.1309944425371175,-0.8436293456092707,-0.9888921967075714,16.372375921875,-60.580153,53.259542,31.0111011926096,-0.879158261617464,3.7371864603174605,-0.022531403225806438,60.580153,1.328244,2.409086762387296,-0.8752133490625414,-0.36253706156513177,-76.44310593750001,-173.618321,123.648855,80.75787477288979,-0.7121878283801627,9.469405047619048,0.06685545161290342,173.618321,2.366412,2.5040385811475985,0.8226023645742533,-0.2986236133298332,39.252743265625,-44.114504,102.900763,40.19494930753616,-2.3325834741335867,3.974554714285714,-0.06426988709677417,102.900763,0.015267,2.6097342957865015,0.10207907477692453,-1.1488153654250741,114.18828233123494,13.51398772875157,196.37358099495907,60.22518195005141,14.531135068086982,9.506964961495465,0.0169142987927546,196.37358099495907,13.51398772875157,1.1836972425627605,0.9764401718267227,1.4352227452702246,0.10575165681926911,1.4698522107967067,0.036296726857768434,-0.00011009701570105412,1.4352227452702246,0.9764401718267227,172.15434146875,17.137404,300.435114,95.09363734507085,17.53095824781863,13.693929460317461,-0.07461216129032223,300.435114,17.137404,2.649442025571501,-0.1538409758539321,-1.3984423379542144,1.700191328125,1.148437,2.313233,0.2666764484397642,2.014244577630292,0.06676277777777775,-0.0012758225806451555,2.313233,1.148437,2.5769686999782673,-0.02853467699987115,-0.8525363843982507
-0.387763953125,-0.781494,0.375488,0.359439359760223,-0.4804745781797429,0.04136055555555553,0.0001811129032258076,0.781494,0.012451,2.4186467141157673,0.9097621947332212,-0.5943370643759414,0.3993949375,0.099121,1.48584,0.2757572547790282,14.990163537494578,0.06933209523809525,-0.0032644032258064533,1.48584,0.099121,2.594107651954231,2.260115613209355,5.679836744998383,0.7905388125,0.322266,1.333496,0.29915479360001745,4.137873681989412,0.04058938095238094,-0.001193145161290321,1.333496,0.322266,2.759908178496845,-0.0369096767063632,-1.2899855195850638,7.06798665625,-40.251908,60.442748,25.623640021159847,-1.5016119981194431,5.333817999999999,-0.07042599999999992,60.442748,0.083969,2.4569009866789235,0.6978749480776193,-0.6537261995736796,-43.43475675,-93.549618,94.29771,49.44447122110152,-1.007996740296684,4.980128428571429,0.022900758064516056,94.29771,2.312977,2.286029822974917,1.1709573391445334,0.5261149934196085,45.425572578125,-42.80916,86.572519,27.349373733308333,-2.022289598768114,3.9533502857142855,-0.18677664516129025,86.572519,8.70229,2.514636303092039,-0.7349718946693639,0.7729757990012103,83.27431797040127,23.013293615443075,126.88840510852587,29.464201584247515,5.513700352016427,3.9636850922673594,-0.11391191699268043,126.88840510852587,23.013293615443075,1.0781765129663936,0.6745291019748518,1.9764888134801066,0.25195884882142117,2.9301757443725465,0.05188461724537988,-0.0021986341393615567,1.9764888134801066,0.6745291019748518,126.621779703125,37.725190999999995,190.46564899999998,46.20998451901451,5.048765664301077,7.408215158730156,-0.28010340322580646,190.46564899999998,37.725190999999995,2.599004785744606,-0.1464330744710736,-1.2854631048109055,1.664817734375,1.1203610000000002,3.08667,0.3630641183661528,2.7550673399020487,0.09267269841269837,-0.004323629032258061,3.08667,1.1203610000000002,2.5328661526174425,1.6039310907360635,4.178913894097574
-0.36356353125,-0.924805,0.451172,0.46943575951043814,-0.48785635890809415,0.0476616507936508,-0.00021658064516129024,0.924805,0.011475,2.4715212518281033,0.632615909030419,-1.2281260935500222,0.46894837500000003,0.277344,1.396973,0.1997137983690661,5.036968530056536,0.05659796825396824,-0.0009253709677419356,1.396973,0.277344,1.9952934934004227,2.380903810592506,7.397298923145826,0.8241233125,0.32666,1.308594,0.2868050877039198,4.005981754729689,0.039364761904761895,0.0009371774193548399,1.308594,0.32666,2.764611822828036,-0.32061185425903577,-1.3431233351693164,12.152194625,-25.748092,73.473282,29.13122895519788,-2.8535427790144605,6.195322904761904,-0.11930559677419339,73.473282,1.610687,2.6092849771168978,0.5851917847181657,-1.0728671778479777,-49.272304359375,-128.770992,136.503817,74.3853494177229,-1.0600509857064702,5.794499,-0.09320364516129037,136.503817,3.679389,2.5551246314590497,1.0985313436583544,-0.02665085215836127,43.695491390625,-47.045802,104.557252,37.47555557197839,-2.2224565754028385,3.9226947619047614,-0.09344988709677418,104.557252,0.175573,2.5029780594263054,-0.07758380641030437,-0.49590973448660325,102.31462562940993,24.248759365209203,165.18593141958868,41.32430444295208,6.8121394967772435,5.941235077048891,-0.07287251146941906,165.18593141958868,24.248759365209203,1.1549126162042296,0.8655700403300706,1.8281458461383762,0.18750298069052307,2.112071537782481,0.04374325421988118,0.0006821423529250247,1.8281458461383762,0.8655700403300706,153.918416,39.129771000000005,255.0229,62.6444675011103,6.517362445080498,9.36992606349206,-0.06611670967741944,255.0229,39.129771000000005,2.7684745298377282,-0.17581628736472701,-1.0503268235740313,1.82822028125,1.392333,3.029541,0.294159803461093,2.1758738749997306,0.08820841269841269,0.0010001935483870998,3.029541,1.392333,2.358382898441183,1.6043501947631675,4.187446427212472
-0.571525578125,-1.660156,0.306152,0.5708243176401918,-0.18441158541727404,0.07866752380952381,-0.0016420322580645154,1.660156,0.006104,2.7599081784968456,-0.21379152439055832,-0.9381282580243346,0.3579025,-0.371582,1.695557,0.37390430289139276,-4.563076252348068,0.11025466666666668,-0.0003977258064516122,1.695557,0.04248,2.6790922311014054,0.5888948304653994,1.8407088678064198,0.596286734375,0.012207,1.67334,0.38116471419797876,137.08036372573113,0.06805712698412698,-0.0036581774193548394,1.67334,0.012207,2.3621603328696086,0.30364097494218817,-0.24885456447070542,-4.9796040625,-54.259542,64.328244,34.174590306745166,-1.1855655545341683,9.506482444444446,-0.24858409677419352,64.328244,0.175573,2.620337037058405,0.22496999637324158,-1.3725881419604644,-19.924856859375,-95.0,131.419847,54.581529657184134,-1.383366810526316,6.991639444444445,0.10428467741935465,131.419847,1.198473,2.4925576081904133,0.8120562535192121,0.3311663567638088,59.388120234375,-89.312977,131.366412,56.56532611949374,-1.4708547000958214,7.288137682539682,-0.2046294032258064,131.366412,4.435115,2.7387590981488406,-1.1708829904438585,0.6067421966513908,99.62450883822123,25.804408004797573,164.68855521667305,35.71446060835262,6.382186918841698,7.3948045218931275,-0.1681548454539763,164.68855521667305,25.804408004797573,1.1386910757170237,0.6475877885082455,2.311756726779658,0.34188906497529803,3.5697966635611187,0.0849583220587814,-0.005642495273466012,2.311756726779658,0.6475877885082455,153.6816555,36.335877,265.923664,59.27596473903105,7.318487565333842,13.74312376190476,-0.4607239516129033,265.923664,36.335877,2.6774187044672786,0.18245465963979893,-0.8477019625336206,1.6725271875,0.869629,3.765625,0.5336630579237573,4.330151133414364,0.14520931746031746,-0.01057287096774194,3.765625,0.869629,2.9355951617176443,1.533626169938805,2.83646305752693
-0.4592590625,-0.785156,0.212402,0.3620142527868062,-0.270522036385126,0.03974063492063492,-0.00062217741935484,0.785156,0.01001,1.923613437254863,0.9481920545303838,-0.8843088523012295,0.330200140625,0.0354,1.535889,0.2879073709036683,43.38669491525424,0.0815933650793651,-0.006576048387096777,1.535889,0.0354,2.1310290783463612,1.8923335817966085,4.564145414837718,0.72668840625,0.371582,1.180176,0.2614156807446059,3.176084955676001,0.03381926984126983,-0.001330951612903225,1.180176,0.371582,2.5990047857446066,0.13774389587648753,-1.5691515544485155,8.242008609375,-68.801527,77.045802,36.71305403196583,-1.1198269189577725,10.14418995238095,-0.023762629032257898,77.045802,0.854962,2.722535560612652,-0.41387845084425384,-0.2715799165144843,-43.562857796875,-115.534351,100.610687,54.55803997618045,-0.8708292047271724,7.917121095238095,-0.1280472741935485,115.534351,2.48855,2.4410835915341353,1.1050827981224782,0.32263308075794583,29.437380765625,-63.458015,71.587786,27.68967237903708,-1.1281125953908264,3.8599297777777783,-0.5113272580645161,71.587786,0.221374,2.4458994835992045,-0.5872870332821619,0.32448745858594563,83.75929881439917,33.76859479039573,144.5837260593307,29.00577976109495,4.28160327537385,6.705581704472761,-0.35270410765183235,144.5837260593307,33.76859479039573,1.0361065652515804,0.7859952086189839,1.9215120647984492,0.23068197522018527,2.444686740743116,0.05625888785684795,-0.00028995387837517416,1.9215120647984492,0.7859952086189839,125.856273890625,41.48855,243.343511,52.96406933305808,5.865317322490181,12.337574285714286,-0.7200197096774196,243.343511,41.48855,2.6334670014624826,0.3420734505840081,-0.7436338885995437,1.580509140625,1.131347,2.981446,0.390509063550036,2.6353064090858065,0.109596,-0.004449661290322581,2.981446,1.131347,2.261971773611644,1.194468802427653,1.2308541907717778
-0.16825114062500002,-0.588623,0.369629,0.3205191022626664,-0.6279554145862462,0.055884888888888894,0.00045283870967741786,0.588623,0.032227,2.568957019541156,0.26940986212441875,-1.3863541974455043,0.304347984375,-0.040039,0.806885,0.22906022618617142,-20.152476335572818,0.04100395238095238,-9.449999999999946e-05,0.806885,0.002197,2.587147417643699,0.14578392000895304,-1.1242827795569148,0.880664890625,0.503906,1.457031,0.1838587847958505,2.8914738066226637,0.09246733333333332,0.00011417741935483784,1.457031,0.503906,2.760748639566527,0.5786740223326443,0.6036563293271575,11.781369265625,-104.832061,58.045802,41.61639800663078,-0.5537027646532677,6.085423428571429,0.137773935483871,104.832061,0.770992,2.6752869222477607,-1.5405451208831855,1.3733549349999095,-33.582180328125,-77.022901,78.694656,37.36024266753757,-1.0217046485953571,8.060099301587302,-0.06808667741935474,78.694656,0.244275,2.5967178507663546,1.7150585871833004,2.344298132776103,26.674499078125,-68.145038,82.068702,36.553555029298664,-1.2043239597283664,5.11256507936508,-0.04986458064516133,82.068702,0.259542,2.754169554445924,-0.7762426536578746,0.07351820449223334,75.41749093701063,20.364096187770816,129.07016900747425,26.36825638468985,6.338124109086871,7.476100292239709,-0.056327458314428334,129.07016900747425,20.364096187770816,1.0264429869541023,0.5807877616117613,1.5232142470781975,0.17156168788821727,2.6226693256260782,0.08750518552826461,0.0006406369976928557,1.5232142470781975,0.5807877616117613,121.009184171875,28.206107,210.977099,44.52404037035503,7.4798375756002065,12.537864920634922,-0.005540516129032208,210.977099,28.206107,2.658455767836298,0.01868834757878618,-0.6450522604291402,1.508964640625,0.899658,1.955811,0.25019710619983887,2.1739494341182986,0.11540109523809523,0.00141754838709677,1.955811,0.899658,2.640079637748701,-0.10188907307542336,-0.71551349389182
-0.19083021875,-0.692139,0.475342,0.34267828202921047,-0.6867724546658981,0.05693514285714285,-0.0009726290322580642,0.692139,0.001953,2.8127843970164412,0.4724274839348701,-1.253635534484594,0.25089259375,-0.11084,0.849121,0.24046032723604802,-7.6607813063875865,0.05257173015873017,-0.000590645161290324,0.849121,0.001221,2.7200276301878423,0.5643790788094353,-0.20825903289891823,0.8634300625,0.549316,1.44751,0.17319364969725753,2.6351134865905963,0.09867938095238092,-0.002890290322580643,1.44751,0.549316,2.6215237114556325,0.3977847471961953,0.6857831655395161,22.39301046875,-76.877863,55.900763,31.696074952545622,-0.727137316499029,5.575184809523809,0.06094558064516119,76.877863,1.21374,2.3978311238866294,-1.7356394835688134,2.710094752767554,-46.598043859375,-76.366412,49.717557,29.800535814669367,-0.6510395826898349,6.0393796349206355,0.043339080645161315,76.366412,7.229008,2.375322221497206,1.9388677855570093,3.3113897184873764,13.545682234375,-52.435115,56.10687,30.397595329673084,-1.0700247343788605,3.845268380952382,0.09221866129032259,56.10687,0.152672,2.6405184086115274,-0.7030627410864136,-0.56125639216221,73.41476709269834,36.388126163223205,103.64583727448603,15.591536506996855,2.84834225344747,5.287426406780192,0.06276097780257206,103.64583727448603,36.388126163223205,1.0065510903064114,0.7014759088814099,1.6775044181095322,0.18521419381407103,2.3913927718266486,0.10236911076116363,-0.0029950830884695064,1.6775044181095322,0.7014759088814099,115.22853046875,43.091603000000006,175.53435100000002,27.019392142923582,4.073516387867956,9.241245714285713,-0.022162000000000195,175.53435100000002,43.091603000000006,2.5260627650187066,-0.25150704442883826,0.08507766518444937,1.49172975,1.04126,2.504883,0.3184901440014984,2.405626836717054,0.14646895238095242,-0.004540209677419351,2.504883,1.04126,2.733719987001953,1.191866880131846,1.2661896732462994
-0.208576140625,-0.733398,0.383789,0.37095496550680446,-0.5233024905985563,0.06505769841269843,0.0005434032258064511,0.733398,0.020508,2.6638558694576195,0.26778155804013926,-1.302044793177982,0.30547328125,-0.298584,0.976074,0.2857726528330746,-3.2690097259062774,0.04958384126984127,-0.0014372741935483881,0.976074,0.008301,2.510678741046234,0.2656918391107662,-0.21244768541939774,0.9269714375,0.523926,1.557373,0.1869067472456901,2.9725056591961456,0.1081504126984127,-0.0020397419354838712,1.557373,0.523926,2.7577189431980482,0.6178417577414527,1.2256468599434527,13.70026240625,-101.496183,63.022901,46.69522829547093,-0.6209386317513044,7.465648825396826,-0.059468096774193846,101.496183,0.282443,2.634629032412974,-1.278121063163042,0.4446464251224356,-44.834565796875,-110.641221,95.465649,55.804459172444865,-0.8628398000054609,7.532412428571429,0.18000491935483878,110.641221,6.198473,2.3129576917922603,1.262622097014065,0.4868114366866285,26.394441828125,-86.206107,84.21374,45.00982146653386,-0.9768883311248471,6.2299769523809525,0.1329721774193548,86.206107,4.992366,2.6958477805263783,-1.0477549069041014,0.25746362063067174,96.81912481839473,21.095728238153455,139.78023521312429,27.169410712165913,6.62599715141948,8.111897132934997,0.014356397862078136,139.78023521312429,21.095728238153455,1.1029598933875608,0.7723834325501809,1.759941798831143,0.174018232146558,2.2785856410984078,0.10618269501829539,-0.002101333514110393,1.759941798831143,0.7723834325501809,153.8982585625,35.221373,234.335878,46.36514698923906,6.653229503574435,13.466012428571428,-0.16658458064516102,234.335878,35.221373,2.655630968945375,-0.49061802701503426,-0.2409955803157584,1.640827109375,1.148926,2.5153809999999996,0.2663925224501784,2.189332472239291,0.14947211111111106,-0.0033746451612903256,2.5153809999999996,1.148926,2.8587225663640394,0.8905572187088094,0.8602837898049875
-0.190574625,-0.688477,0.284912,0.3381618469109227,-0.4138293653963749,0.05658252380952381,-0.0008466129032258062,0.688477,0.013428,2.6130624115453234,0.11691191768370099,-1.5718367868235057,0.33208840625,-0.171631,0.701416,0.2433621866760916,-4.086767541994162,0.035381031746031744,0.0002205161290322579,0.701416,0.018311,2.626477351316181,-0.5473865553870428,-0.846000183148603,0.90315621875,0.623535,1.568848,0.16593250335885218,2.5160544315876416,0.09266109523809522,-0.0012640161290322566,1.568848,0.623535,2.424628801658081,1.269367105239099,2.719169905462821,14.7210161875,-62.480916,51.931298,31.697456008708517,-0.8311545560567646,3.342299841269841,0.022162032258064457,62.480916,0.152672,2.6075433359263283,-1.2616612225087578,0.5579314872456331,-44.606273890625,-113.885496,76.10687,50.91828815630571,-0.6682753526401641,6.184781301587302,-0.14023640322580633,113.885496,0.748092,2.3936478246135473,1.049398178595759,0.02881498122180437,26.243917,-47.748092,78.465649,40.87369569287241,-1.6433253291042498,3.6384344761904757,0.09763604838709675,78.465649,0.015267,2.6437034015205803,-0.40561044406418634,-1.2442416201000541,82.48620157900525,10.385422645707829,135.98549891587462,36.01684358276605,13.093882026272258,6.060424266683925,-0.03493059876548991,135.98549891587462,10.385422645707829,1.0667430989894127,0.7954545433033869,1.691249950570879,0.15058495849786832,2.1261428007531475,0.09092787303722423,-0.0009922430615491387,1.691249950570879,0.7954545433033869,133.377743359375,14.992366999999998,217.30534400000002,61.83318076719676,14.494398649659527,9.899309333333335,0.11401132258064542,217.30534400000002,14.992366999999998,2.659927837611595,-0.49008392106858234,-1.1585794552137005,1.59809103125,1.209228,2.30835,0.2171597385910188,1.9089452113249115,0.12872039682539682,-0.0006379193548387043,2.30835,1.209228,2.535398231894346,0.5324568240691588,0.48203119076959444
-0.181015046875,-0.436523,0.270264,0.23877866066877823,-0.6191288889703407,0.015659857142857142,-0.00012601612903225784,0.436523,0.014893,2.3450302095499285,0.7308517485539261,-1.0079568679462227,0.190807296875,0.052734,0.30249,0.05895353184047605,5.736147457048583,0.010676333333333335,-0.0003583387096774187,0.30249,0.052734,2.6622516985157847,-0.8225929038448855,0.022356645628508698,0.890426640625,0.647217,1.211914,0.1966185912299489,1.8725002588003712,0.020407047619047616,-0.0004922096774193569,1.211914,0.647217,2.6549123814399413,0.4848837943460701,-1.4081956626089698,8.905772921875,-38.580153,30.282443,11.9723534017324,-0.7849228332505576,2.3221859365079367,-0.17089387096774195,38.580153,0.732824,2.8165980057266853,-1.3174772452400367,3.7081549470207227,-28.289479953125,-64.832061,-2.320611,18.998625921160038,0.03579418831062613,2.595783349206349,-0.031026838709677384,64.832061,2.320611,2.579750973489601,-0.7283342802007811,-0.6967368294747311,19.9960639375,-4.877863,31.625954,9.488262656634857,-6.483567496668111,1.0998424444444446,-0.05195766129032255,31.625954,0.381679,2.611317944054237,-0.5521292504065959,-0.8404399533690401,39.62525452314868,10.40125517844385,72.23004935566416,17.291239082051074,6.944358937117301,2.4851813579620137,-0.19057134705565124,72.23004935566416,10.40125517844385,0.9647921781019771,0.7328491310945248,1.2514365428530525,0.1710767459381962,1.7076318845926817,0.01955412521464102,-0.0003964176415954669,1.2514365428530525,0.7328491310945248,60.69847334375,16.122137000000002,103.305343,24.30259400506377,6.40767058362052,3.6123834126984122,-0.2950012419354838,103.305343,16.122137000000002,2.659176127040093,0.19119483168929774,-0.9876808921387843,1.354480734375,1.06543,1.685546,0.17022243282957852,1.582033545141398,0.024181492063492054,-0.0001496290322580642,1.685546,1.06543,2.6871092622778883,0.3842874622398962,-1.0073466693101785
-0.10641859375,-1.585449,0.503906,0.37981408355056573,-0.31783173094814143,0.1048371111111111,-0.001539661290322581,1.585449,0.011475,2.1986925525735272,-0.5449696436071981,1.927699601597797,0.173812859375,-0.70752,0.442871,0.16558145934941357,-0.6259483830845771,0.06597612698412698,-0.0005827741935483857,0.70752,0.00415,2.786418138356697,-2.423924795803193,10.727160585663535,0.9725646875,0.314453,1.555176,0.2926061573395406,4.94565483553981,0.08540274603174604,-0.0003228870967741937,1.555176,0.314453,2.634031973234602,-0.45182165152612336,-0.5700198619790657,5.29627859375,-67.938931,39.061069,27.67753376516333,-0.5749438271261584,7.409669126984126,0.09702043548387096,67.938931,1.038168,2.6790598013350513,-1.601095278374873,1.4576813305821412,-47.3922948125,-93.671756,41.053435,29.188649485987582,-0.43826908721557434,11.477038650793654,-0.11967495161290376,93.671756,2.656489,2.9243407829428865,0.8867539486489453,0.7468078371723257,9.218153640625,-23.961832,27.10687,12.19004001376442,-1.1312519844058668,2.1715739841269843,-0.015759661290322594,27.10687,0.648855,2.590262368250619,-1.1346952991601105,0.647944758205742,61.06486498291406,22.391921968427052,99.86442502944786,19.365256130173073,4.459841596905268,7.6303344429722655,0.01680417823931363,99.86442502944786,22.391921968427052,1.063166395806696,0.35889164335492685,2.3308379336575507,0.3348448937974122,6.49454501606342,0.11474681622366893,-0.0007561855708537403,2.3308379336575507,0.35889164335492685,87.204914046875,34.442748,138.877863,25.725373619915317,4.032136547292916,11.010057000000003,-0.0068948548387094515,138.877863,34.442748,2.6239992230622806,-0.012550591750169333,-0.67084557102977,1.501056609375,0.5449219999999999,3.848145,0.5184595751342632,7.061827197286953,0.20006357142857145,-0.0029651290322580564,3.848145,0.5449219999999999,2.5438978069050235,1.337060882175683,4.831763132931245
-0.109691578125,-1.472168,0.681885,0.4529453130084723,-0.46318422897386713,0.07710198412698412,-0.0016617258064516125,1.472168,0.006104,2.2668184036876142,-0.00400197699245354,-0.1854504183574739,0.120578734375,-0.630615,0.567383,0.17216395227512582,-0.8997296290129476,0.06720836507936509,-0.0002126290322580625,0.630615,0.001953,3.080294887991398,-0.3206924736744681,5.416312016521147,0.972689640625,0.414551,1.999939,0.35297483925441236,4.8243497181287704,0.09721638095238096,-0.002157903225806454,1.999939,0.414551,2.44881295972225,0.344665792009699,-0.0772182856929553,2.890744296875,-99.832061,39.099237,38.0379300906894,-0.39165010326692545,9.917969253968257,-0.06365429032258045,99.832061,0.78626,2.6245021908932267,-1.8086272447113922,1.843925174057075,-36.02934159375,-94.870229,169.549618,39.29114163919365,-1.7871741197125182,14.009814587301586,0.1138882096774188,169.549618,0.938931,2.546374862213943,2.1130011149207757,9.864402068975123,4.893964671875,-23.427481,22.977099,10.83752417287675,-0.9807754832881947,2.8212771428571424,-0.007756709677419407,23.427481,0.114504,2.555418930076756,-0.5988825341289798,-0.039152457106333305,58.862805998473725,18.35258157585619,194.4921436484913,30.656829169691754,10.597535983948775,11.09845318549565,-0.054023918986100136,194.4921436484913,18.35258157585619,1.0904225164315173,0.47024319992956837,2.483352258169187,0.3736746467916202,5.280995575355765,0.10149575245497433,-0.002015658344647743,2.483352258169187,0.47024319992956837,82.05832540625,24.106870999999998,268.91603000000003,38.37624733190917,11.155161115683576,14.696231714285712,0.1567347903225819,268.91603000000003,24.106870999999998,2.3194248528046466,1.770432502978977,6.810142922704536,1.510569515625,0.686768,3.4740599999999997,0.5450210566983076,5.058564173054073,0.1386545079365079,-0.001378193548387107,3.4740599999999997,0.686768,2.8729820879772157,1.3345136558954402,2.3178536266020515
-0.402797734375,-0.781006,0.522461,0.2605550240845304,-0.6689590092777776,0.10194615873015873,-0.003079306451612905,0.781006,0.046387,2.899144449812753,1.0988993419534903,1.7827595596211099,0.194713625,-0.746338,0.833008,0.27528589524275154,-1.1161270094782794,0.11576142857142856,-0.0014648548387096777,0.833008,0.002686,2.745423684446314,-0.08556224140211184,1.2385485233781752,0.8303451875,0.480469,1.351807,0.21966511791923685,2.813515544187034,0.06328660317460318,-0.0012758387096774195,1.351807,0.480469,2.628930611208111,0.3766607536910841,-0.6656317207307412,-5.37511928125,-77.671756,65.40458,29.71214575914479,-0.8420638771189877,11.854719492063493,-0.6962570645161291,77.671756,0.793893,2.439673760372954,0.13440274328955168,-0.27682966100188056,3.4439408281250006,-105.068702,217.984733,88.10359662694698,-2.074687598215499,9.986671492063493,-0.2133710967741936,217.984733,2.450382,2.5773645964245513,0.6951161893395826,-0.7999143575847194,11.938812,-107.419847,103.557252,47.50021110977329,-0.9640420731561832,9.424209349206352,-0.20499875806451612,107.419847,0.381679,2.53596404729806,0.10427851495831282,-0.4598610963933374,95.25077280288474,22.061636570416574,218.8238455392702,43.25276423158217,9.918749447296253,10.29252156780471,-0.7028057159638246,218.8238455392702,22.061636570416574,1.0113022393455262,0.5645250458447348,1.4711961752978424,0.23814205234789063,2.6060777748069577,0.07294970715971606,-0.0023763303777587686,1.4711961752978424,0.5645250458447348,137.869751890625,33.99999999999999,268.679389,56.72989157386788,7.902334970588237,15.74421426984127,-1.1146269193548388,268.679389,33.99999999999999,2.5728685012246357,-0.078818264316012,-0.6517398217851964,1.517807046875,0.833252,2.397217,0.38201820618949023,2.876941189460091,0.12696866666666667,-0.005819999999999997,2.397217,0.833252,2.63452426841927,0.012198814831544908,-0.6731079482976194
-0.287597703125,-0.528809,0.265381,0.24001931095105325,-0.5018466024594891,0.03349374603174603,-1.9693548387096325e-05,0.528809,0.011475,2.1794574471697223,1.1481074506786135,-0.28557031453617476,0.224990828125,0.008057,0.654297,0.14309257401899889,81.20851433536056,0.025096095238095237,-5.119354838709649e-05,0.654297,0.008057,2.6159110390838536,0.6885856043895379,0.012510148808990262,0.948989875,0.572021,1.601318,0.2350379808443328,2.7994042176773233,0.03579565079365079,-0.0028745483870967724,1.601318,0.572021,2.4273260189193224,0.8261716511906076,-0.021323276226281163,-8.644322546875,-73.770992,22.931298,23.354068351863635,-0.31084437633697537,2.6806009682539687,-0.20869243548387098,73.770992,0.19084,3.100070145985585,-1.3277388891013624,1.4317669267106305,-65.095300578125,-105.572519,85.641221,43.85723626571588,-0.8112075169864992,4.2068338730158725,-0.002585564516129049,105.572519,6.816794,2.961966826039992,2.1475604509848387,3.990458422402849,40.50894559375,-11.931298,94.755725,28.38263014787345,-7.9417784217609855,3.295528888888888,0.023023887096774182,94.755725,6.282443,2.436880968945375,0.5500559330190407,-0.6593088298234835,93.21713070156763,49.77427340066188,127.75914807891179,22.241248893865812,2.566770730142148,3.2497902617297023,-0.08066148080107226,127.75914807891179,49.77427340066188,1.05836546363316,0.7093417124383706,1.7576514350408046,0.21386125815755785,2.4778627905566935,0.03979994130137034,-0.0026570979044524385,1.7576514350408046,0.7093417124383706,132.32156490625,80.961833,181.75572400000001,30.13904321187477,2.2449556447171846,4.921119476190478,-0.16658456451612927,181.75572400000001,80.961833,2.750128780271379,0.14678304702324707,-1.2929801364524443,1.51748659375,1.082763,2.624023,0.2845263213176639,2.423450930628402,0.06307355555555555,-0.0029454354838709647,2.624023,1.082763,2.56386175207883,1.860820073348966,4.4209852049643175
-0.24288559375,-0.802246,0.397461,0.3965172897629751,-0.49543531535214885,0.04330588888888889,-0.000736354838709677,0.802246,0.001953,2.693225180027358,0.27382616606084803,-1.2777849608558167,0.13004690625,-0.35376,0.692383,0.28252339198614357,-1.9572111035730437,0.04150003174603175,0.0006891129032258066,0.692383,0.002686,2.688059621032748,0.3961106498448885,-0.8253140596509518,1.129505203125,0.502441,1.669678,0.2684350218473669,3.323132467294667,0.041984444444444456,-0.00025988709677419785,1.669678,0.502441,2.486698558647944,-0.39075895452419607,-0.3765388793645048,-17.6582776875,-91.824427,32.984733,34.06672209183568,-0.35921523365454816,4.353931873015872,0.022900758064516056,91.824427,0.099237,2.641072870920102,-0.7742703673880696,-0.35061905824548756,-76.6759303125,-163.717557,148.007634,96.16820207052436,-0.9040425273387142,6.1976251269841285,-0.0032011935483871406,163.717557,3.519084,2.1082221778951795,1.2374243036968022,0.09107756268339084,42.98294371875,-20.0,103.312977,34.38087805951071,-5.16564885,5.453774365079366,0.10440779032258057,103.312977,2.328244,2.7664224150329324,0.019667260330292,-0.8803836746871565,138.0523964377982,99.4235725142563,179.16637383026534,19.90156879721646,1.8020512570555112,3.575470899003967,-0.015037169112318796,179.16637383026534,99.4235725142563,1.2691192166832705,0.9561799898518062,1.8097668246865395,0.21451360454723778,1.892705185105397,0.04747993791923015,-0.00030481188048032466,1.8097668246865395,0.9561799898518062,188.239146,147.24427500000002,257.717558,27.705909928282708,1.7502721786636524,6.682418571428571,0.0371829354838709,257.717558,147.24427500000002,2.445267223277193,1.0146209517812834,0.4060515726171534,1.773746578125,1.335205,2.657471,0.32140237778176406,1.990309353245382,0.08186065079365082,0.0015120967741935449,2.657471,1.335205,2.5192018622437495,0.8051474110528364,-0.20923241686769645
-0.53769309375,-1.772949,0.640869,0.705467139139277,-0.36147063451909783,0.09228519047619048,-0.0004213387096774199,1.772949,0.007324,2.9338024690706446,0.11952208095255926,-1.0439911664582915,0.234863328125,-0.44751,1.86084,0.5598086512236083,-4.158208755111618,0.10152766666666667,0.00037016129032258285,1.86084,0.011719,2.4442873825559115,0.9963997927800499,0.23122538883502974,1.0545901874999999,-1.1521,1.999939,0.5897694400336314,-1.7359074733096087,0.09117487301587299,0.0023823548387096757,1.999939,0.00708,3.061342973043648,-1.9428245052813269,4.317735045366228,-20.331106875,-233.068702,95.274809,83.46168532898122,-0.40878422620639987,11.0192656984127,-0.08002954838709657,233.068702,3.320611,2.3582361486956382,-0.8746596145806074,-0.15270065834655444,-90.650644078125,-220.51145,231.824427,137.4667314667846,-1.0513033540888692,10.214830952380952,0.16116719354838732,231.824427,3.496183,2.2560883459036942,1.218262806749223,0.14616279232804086,59.5937499375,-91.580153,204.671756,75.01349734719717,-2.2348920513378046,13.036350444444444,0.04789461290322579,204.671756,2.687023,2.8692742561795126,0.20865902356437482,-0.5962817808539826,204.06139907760786,83.0552877303899,277.3768162199129,39.542817680014515,3.339664743806803,8.807740485612184,0.09919957239184939,277.3768162199129,83.0552877303899,1.5762313282478406,1.1471126961292863,2.551644184739518,0.33839169509101796,2.2244058437759047,0.09231390710700067,0.0008217919640766268,2.551644184739518,1.1471126961292863,289.348163109375,124.282443,438.870229,78.518282127287,3.53123271804369,16.321822333333337,-0.011081032258064187,438.870229,124.282443,2.6391653304589484,-0.05501350128491058,-0.9562645009034836,2.350149171875,1.41919,4.1527709999999995,0.6309138742264637,2.9261557649081515,0.17758906349206346,0.00015753225806451745,4.1527709999999995,1.41919,2.773848536518439,1.0501468333719577,0.6810067551844865
-0.33778,-1.38501,0.736572,0.6504498695315567,-0.5318170987935105,0.06419341269841271,0.001870435483870971,1.38501,0.021729,2.7745310230081115,0.1501581947631526,-1.3329809768949372,0.279762296875,-0.270752,1.14209,0.3077042804050297,-4.2182144545561995,0.06646049206349207,-0.0011970645161290332,1.14209,0.02417,2.9548455509789684,1.1005144544083283,1.4094366066997228,0.844490078125,-0.78833,1.500244,0.5618729645860986,-1.9030659749089847,0.0751992380952381,-0.002969064516129033,1.500244,0.006348,2.467673918879385,-1.3507661712317587,1.1366099061435229,31.611641171875,-57.137405,80.366412,39.913879114638966,-1.4065464121095452,5.31830849206349,0.016867758064516115,80.366412,1.022901,2.5854498808364057,-0.7631355076850345,-0.6170297861150984,-53.645873125,-143.48855,72.473282,63.408808155788016,-0.5050805935386482,10.219677698412701,0.16596898387096767,143.48855,1.244275,2.685820610406815,0.45322540997711985,-1.083367206694348,39.267056296875,-76.633588,88.381679,33.18829354090686,-1.1533021134283834,5.96292257142857,0.07855208064516118,88.381679,0.816794,2.336289111939352,-1.323646901467549,2.3950631300678875,106.09391214698658,57.077647028605924,149.48890581831387,28.031559602317188,2.6190446453301357,7.175972001447296,0.14537596591365134,149.48890581831387,57.077647028605924,1.2944917689135937,0.8838371030172925,1.6953955252860613,0.22596433107521982,1.9182217169863376,0.06978569325383273,4.828897042548218e-05,1.6953955252860613,0.8838371030172925,163.98425565625,81.068702,249.450382,46.353504957349074,3.077024497074099,12.649581968253969,0.3374784354838715,249.450382,81.068702,2.7392323187321086,-0.09732793815519299,-1.0166234422891947,1.88184746875,1.269532,2.720458,0.4017002316702932,2.1428825740509096,0.13773396825396828,-0.0006497258064516176,2.720458,1.269532,2.648062623164926,0.16640721498970343,-1.0427084204628438
-0.3108329375,-1.7771,1.494385,1.021349504801242,-0.8409121602610996,0.16635284126984126,0.01794435483870968,1.7771,0.00415,2.7049341444553945,0.1877327671267772,-1.3571249183914547,0.278591140625,-1.783447,1.564697,0.5563935921429842,-0.8773442664682494,0.1536187142857143,0.008848129032258067,1.783447,0.007812,2.8692065812944803,-0.3726651692475934,2.407923373488109,0.739260703125,-2.0,1.999939,0.9181940745597785,-0.9999695,0.18100406349206347,0.019762596774193546,2.0,0.093262,2.8301625215436044,-1.1986307899838264,0.8132906203895507,40.252146921875,-125.366412,118.480916,55.707481024855035,-0.9450770274896277,10.70119957142857,0.6108101612903227,125.366412,0.931298,2.3880057241405104,-1.1837113782706365,1.3244365697218843,-38.926168921874996,-147.259542,76.89313,70.7683297208886,-0.5221605945236472,17.318066126984128,1.4826397258064516,147.259542,2.21374,2.7645417256026708,-0.11203938190138857,-1.3466020451800151,30.97531003125,-95.89313,126.366412,59.03342391348273,-1.3177837870137308,10.004483238095238,-0.006894854838709567,126.366412,0.732824,2.6618243356713287,-0.41283761501767563,-0.4048380244336194,116.81720221582204,41.10340316965432,205.25693871591773,43.514481297656744,4.993672613158565,13.064746951437076,0.7280576403349134,205.25693871591773,41.10340316965432,1.626721606018766,0.7484283330980996,2.7027874863901156,0.48965197944919614,3.6112842965230847,0.14049664885572802,0.0022741394632267466,2.7027874863901156,0.7484283330980996,178.21421753125,64.305343,344.96183199999996,77.25642324248577,5.364434989484466,21.944989761904765,1.7366412258064523,344.96183199999996,64.305343,2.578303847964635,0.7242491504369737,-0.37883350755026823,2.46290859375,1.111084,4.618163,0.8328901811819825,4.1564481173340635,0.25890625396825395,0.007549661290322583,4.618163,1.111084,2.4253998938896673,0.13438170766048327,-0.9121038823009804
-0.26533125,-0.999268,0.92749,0.6188287686393663,-0.9281694200154513,0.06575911111111113,-0.0005197741935483865,0.999268,0.001953,2.54582152777358,0.6213817089270246,-1.0597350738071993,0.24782564062499998,-0.240967,1.416016,0.3599620461033806,-5.876389713114244,0.07666407936507935,-0.008351967741935484,1.416016,0.001953,2.6411242964461836,1.5716525685435667,2.2853807368981824,0.871738484375,0.029785,1.614014,0.4623798295589717,54.1888198757764,0.07956663492063493,0.0011537580645161283,1.614014,0.029785,2.760231627669065,-0.17846797918732535,-1.0486024863077448,8.857466625,-34.427481,69.755725,24.65074283807831,-2.0261640693375154,7.061674507936507,-0.0536813709677418,69.755725,1.114504,2.6295279479332274,0.4005201114210147,-0.5639185488831839,-26.421517140625,-141.770992,89.320611,62.034520442707546,-0.6300344643141101,13.50490734920635,0.07645900000000007,141.770992,0.526718,2.711036338342836,0.24693348939787896,-1.0228444442044307,40.289599234375,-43.427481,97.870229,34.747779779081284,-2.2536473851660888,5.894583825396826,-0.09554295161290334,97.870229,1.610687,2.5488457452133986,-0.14959017884708986,-0.7024464997298776,83.20512254385544,11.691182840306023,149.7278628502508,32.68426956890519,12.806904561791251,9.114863926514074,0.05358012429537916,149.7278628502508,11.691182840306023,1.215986885634299,0.7515541216612415,2.036426316957724,0.360726216910811,2.7096203164402723,0.0823900549909947,-0.0010371376024557249,2.036426316957724,0.7515541216612415,122.9161498125,19.145038,214.0,50.43463442543924,11.177831039039985,14.38991876190476,-0.13580396774193526,214.0,19.145038,2.711036338342836,0.0020262057355824987,-0.9002200547982602,1.7658386562500001,0.882324,3.089112,0.5954516180066765,3.5011084363567124,0.14411277777777776,-0.003528241935483873,3.089112,0.882324,2.6923259459949858,0.50245316530913,-0.7496159350824656
-0.40790553125,-1.606445,0.518066,0.4574096390049448,-0.3224922110623146,0.13193673015873017,-0.0018822419354838718,1.606445,0.044922,3.263955431278974,-0.13052440800463602,0.6850584953576173,0.3650245625,-0.262939,1.377441,0.28750471429089314,-5.238633295174926,0.14415914285714285,-0.002587096774193549,1.377441,0.023926,2.788363676371474,1.2208174713340458,2.7584673157792734,0.789852140625,-0.735596,1.930908,0.4264864234611255,-2.624957177581172,0.13888887301587302,0.001705048387096777,1.930908,0.067139,2.2670877274466754,-0.4887706964783091,1.7725864594718592,0.7466602656250001,-88.412214,55.053435,32.734318103590404,-0.6226903785035854,11.280625222222218,0.2233440161290323,88.412214,0.251908,2.692304623443408,-1.0268639512850761,0.8646392291927971,-5.428554390625,-119.671756,250.129771,84.49265084234361,-2.0901320358330833,13.141524317460314,0.006402370967742006,250.129771,0.557252,2.9512754363684315,1.5079919238678898,2.157226583798283,10.21326346875,-94.038168,86.419847,43.58440724655443,-0.9189869266700305,8.600387714285715,-0.2148485645161289,94.038168,0.175573,2.5943286956341476,-0.35837442679163006,-0.535618157190255,83.11759001823546,15.271092659566767,267.68698558500057,56.81919518993393,17.52900015424271,14.155355819956029,0.37892247912301924,267.68698558500057,15.271092659566767,1.1099809173310202,0.49295404713725605,2.442445438475341,0.4003923440645369,4.9547122143725435,0.1424158268554308,0.001053873397927448,2.442445438475341,0.49295404713725605,122.92187496875,22.328244,359.923664,77.85566437786483,16.119658312583827,20.619047698412704,0.5827382419354842,359.923664,22.328244,2.241521976854287,0.9660510095215132,0.6320336339603934,1.722373890625,0.625489,3.666259,0.5894884922591282,5.86142841840544,0.21148779365079368,0.00292180645161291,3.666259,0.625489,2.4452607446696093,0.9559330320698018,0.8339726169984591
-0.26648321875,-0.592285,0.390625,0.3355084542788546,-0.6595220206488431,0.044914206349206356,-0.0009135483870967746,0.592285,0.016357,2.0097036716974714,0.7518481049192591,-1.138188567056859,0.39332575,0.0354,1.480957,0.34826417739457133,41.834943502824856,0.0651661746031746,-0.0038708225806451616,1.480957,0.0354,2.1335525033571354,1.329097655073713,1.1021379760635082,0.959899953125,0.320801,1.71167,0.36952586263955284,5.3356130436002385,0.053125761904761905,-0.002350854838709676,1.71167,0.320801,2.7008181692545437,0.24636193031769685,-0.731203850523646,21.866650734375,-39.236641,62.961832,29.712869218995703,-1.6046692681975505,4.063976714285714,-0.036813596774193505,62.961832,0.480916,2.562806847436231,-0.15628832804515103,-1.2772594484080628,-72.19716125,-134.732824,71.374046,43.60529205858722,-0.5297450456467833,6.229249888888888,-0.057375032258064604,134.732824,15.458015,2.8928834631249982,1.7239578112974647,3.066286408620331,48.62130253125,-55.206107,148.793893,49.03802874783373,-2.6952433541455836,7.745425904761906,-0.1136419516129033,148.793893,0.473282,2.639568948411494,0.36699087038757894,-0.40912040721636656,110.80512049682193,40.838794060891196,169.52635186960842,29.980107717165076,4.1511106233167006,6.418455329005163,-0.146591229371876,169.52635186960842,40.838794060891196,1.173137166173828,0.6022259804865612,2.1381294147721746,0.3710011971519207,3.550377240524726,0.053852497014665955,-0.003990236682883044,2.1381294147721746,0.6022259804865612,163.675334015625,61.366412,238.24427500000002,42.02421446221803,3.8823236887305717,8.86647273015873,-0.31149964516129036,238.24427500000002,61.366412,2.5865067326255873,-0.16853100349571193,-0.4871880245612208,1.742259921875,0.950439,3.068604,0.5190568069317353,3.2286175125389427,0.08439912698412698,-0.005237225806451608,3.068604,0.950439,2.607803515386361,0.6711631868371905,-0.11134200990702858
-0.541564984375,-1.190918,0.398926,0.33859883726267387,-0.334973524625541,0.03663663492063491,0.0012443225806451617,1.190918,0.054932,2.62319198715719,1.267382902001846,0.9911808140710274,0.2399635625,-0.054932,0.785645,0.20198758547871165,-14.30213718779582,0.044197174603174606,-0.0010395806451612905,0.785645,0.005615,2.537050627992094,0.4488022976307902,-0.7210942921788801,0.639213546875,0.07373,1.324219,0.4314786137451017,17.960382476603826,0.03746593650793652,-0.0006930483870967738,1.324219,0.07373,2.651363167077972,0.3431572405873597,-1.5143713074217975,17.79627865625,-70.755725,75.19084,36.42809066097528,-1.0626820656561713,5.260511365079364,-0.14516130645161268,75.19084,0.091603,2.543437713490619,-0.5899870663723722,-0.2032224090020418,-57.01896471875,-114.679389,45.183206,40.67346856561759,-0.39399587313811024,4.4280867301587294,-0.1493474516129034,114.679389,2.335878,3.074061226210989,1.0783076132216078,0.5540274451661671,45.83074909375,-23.862595,124.076336,43.61128409665983,-5.1996162194430235,4.874227539682539,-0.1540261129032258,124.076336,0.206107,2.7442742561795126,0.1602533906912134,-1.106097245162166,96.32223862179795,18.287758473796647,153.13400896739952,34.87604828790657,8.373580020034462,4.572170247162232,-0.058792034414381765,153.13400896739952,18.287758473796647,1.0180139410980469,0.7114790265819506,1.5840785259377137,0.2456495400720512,2.2264584994836163,0.04299422929025151,2.0548677242975124e-05,1.5840785259377137,0.7114790265819506,148.479484875,26.954199,225.21374,54.52478144973207,8.355423212539167,7.18490242857143,-0.16486087096774213,225.21374,26.954199,2.490234409260901,-0.7085976789556887,-0.7347585000270178,1.47442246875,1.019775,2.500977,0.3883339826306436,2.452479223358093,0.07619126984126985,-0.0014491129032258058,2.500977,1.019775,2.413360831728131,0.8384397963558189,-0.40946943229622024
-0.0145339375,-0.552734,1.255371,0.2628148266457834,-2.2712027847029495,0.12718166666666667,0.009293080645161298,1.255371,0.002686,2.487152703571745,1.4462900520443929,6.8986490112670396,0.135841375,-0.690918,0.529053,0.18677526484423712,-0.7657247314442523,0.12401192063492064,0.008930822580645162,0.690918,0.01123,2.872979261676699,-1.7273139853295065,5.647338836521804,0.862376140625,0.00708,1.999939,0.2686625997289883,282.47725988700563,0.17830592063492065,0.004910387096774198,1.999939,0.00708,2.8066208324613973,0.9276312385623159,4.83164838371076,3.74964215625,-29.648855,80.312977,18.241194465283364,-2.708805348469612,9.471586126984127,1.0199458225806453,80.312977,0.236641,2.7536943877741393,1.4993235203952948,3.6074123545996946,-10.497972328125,-115.587786,247.618321,54.744404800594445,-2.142253343272792,16.474130666666667,0.46466388709677403,247.618321,0.244275,2.728020916472415,2.455348093496494,8.993032617460413,5.6402671875,-63.335878,37.244275,24.731044343560267,-0.5880438730161758,7.673815587301588,-0.16362964516129044,63.335878,2.648855,2.2575226999866222,-0.9898882034029771,-0.18605964371858308,47.80737481079165,9.314656965443977,249.9502431886472,42.166922087323364,26.834079249072325,12.437804657555297,0.5140194963791969,249.9502431886472,9.314656965443977,0.9305475572039416,0.5027478175676151,2.0301440977578413,0.26632752308295826,4.038096291655816,0.17541987921832405,0.004221931958750732,2.0301440977578413,0.5027478175676151,69.465648796875,15.854962,301.435114,55.77510399044269,19.012036358081463,17.665091555555556,0.14836245161290293,301.435114,15.854962,2.3039678514411284,2.401021219683585,6.293722280872858,1.244234921875,0.627197,2.68872,0.3744489911994203,4.286882749758051,0.24277455555555555,0.006524838709677417,2.68872,0.627197,2.6384146928324275,1.8077685366599752,4.166996879148763
-0.099964078125,-0.446533,0.266357,0.18700914362598414,-0.5965001466856873,0.06205044444444444,0.003807790322580644,0.446533,0.01001,2.4902912003655038,0.6790833559704096,-0.7033156383920045,0.116939484375,-0.272949,0.484863,0.138030425198835,-1.7763867975336052,0.09218439682539684,-0.010127887096774195,0.484863,0.00293,2.493595643524047,-0.26600209379257334,1.614182341147031,0.873649578125,0.54248,1.534424,0.18654092659098262,2.8285356142161926,0.10827444444444444,-0.01097058064516129,1.534424,0.54248,3.0078560636920493,0.7664164284664546,1.3971490197063563,3.06428915625,-23.183206,33.305344,13.477446042575595,-1.4366151083676693,7.5716708412698415,-0.570426,33.305344,0.083969,2.7400264274683357,0.07162602918452096,-0.38375082993367426,-12.914002859375,-99.496183,41.534351,28.86307102709751,-0.4174466773263051,10.523445952380952,-0.5970204354838707,99.496183,0.10687,2.754487652878772,-1.1236019551259877,1.1359183483421793,6.471374,-36.862595,56.679389,17.289117059753686,-1.5375854304342926,5.378165492063491,-0.016621532258064523,56.679389,0.015267,2.600701158715818,0.3962046898371074,1.234207032147883,29.465682820197596,2.2091952231661196,104.22822583460459,25.556312824164277,47.179273584173956,8.600164725141859,0.09340022526076668,104.22822583460459,2.2091952231661196,0.9142036341369949,0.568169805021351,1.5930818103477926,0.19801541576923395,2.8038832691714886,0.11636791164928656,-0.008734115093212145,1.5930818103477926,0.568169805021351,43.767652546875,3.259542,143.32824399999998,37.8720803930885,43.97189666523701,11.64437168253968,0.34486580645161297,143.32824399999998,3.259542,2.399943312595187,1.0745294638676846,0.13273327308467664,1.210082828125,0.676758,2.137451,0.29870747515691803,3.1583682793553973,0.17622284126984128,-0.0061468387096774175,2.137451,0.676758,2.7620795142377452,0.5092946447038494,0.2555423776437067
0.026152625000000002,-0.814453,1.999939,0.42402467857449794,-2.4555609715968876,0.17214060317460317,0.00036227419354838814,1.999939,0.001465,2.573996377626474,1.6767368486037546,7.1848008710284486,0.181514765625,-0.458984,1.66333,0.2677488605651354,-3.623938960835236,0.160818873015873,0.010718548387096773,1.66333,0.014404,3.106104738254052,2.568497146478632,13.934774794922717,0.791612625,-0.968506,1.999939,0.4962873702262104,-2.0649732681057213,0.2897523333333333,0.003185629032258067,1.999939,0.146484,3.121421690006749,-0.45912251584262165,3.9165354517069844,-3.827886453124999,-129.251908,97.70229,35.354246581687605,-0.7559059785794421,10.77947407936508,0.25941885483870986,129.251908,0.305344,3.1468603411350182,-0.4407663894259652,4.528250408407446,14.804508640625,-85.137405,250.129771,69.71516393837695,-2.9379538993465917,16.734278492063492,-0.33341541935483854,250.129771,0.969466,3.226767682792879,1.7225502892285913,1.9643641174944388,2.3291984375,-73.015267,23.801527,22.49620319258541,-0.32598014056430147,5.364958222222223,-0.022162016129032267,73.015267,0.59542,2.5487324245345397,-1.9348172163614756,2.8551766895766884,55.50627159263059,13.183886333047816,257.7290180995233,61.06885372502148,19.54878945318866,13.895480372626741,0.036369732661514734,257.7290180995233,13.183886333047816,0.9650386598574412,0.5241388781964185,2.848365763803167,0.47166531795571,5.434372228987288,0.2565418137091002,0.0036051263754236936,2.848365763803167,0.5241388781964185,80.2232824375,16.282443,322.954198,87.21018990260434,19.834505055537427,18.876287365079364,-0.07966019354838677,322.954198,16.282443,2.438273992745035,1.821392930989256,1.6886525644068495,1.353642484375,0.6064449999999999,4.446289,0.7480995909117641,7.331726702339043,0.349281873015873,0.0069107419354838785,4.446289,0.6064449999999999,2.976969386590139,2.5297880754104582,6.713924053629354
-0.0653495625,-0.601318,0.623291,0.37852881943206246,-1.0365413973970512,0.03151736507936508,-0.00021658064516129002,0.623291,0.005127,2.7832518404037767,0.4806135142168988,-1.164870931299568,0.038616125,-0.253662,0.231689,0.11611960512463686,-0.9133768558160071,0.02144169841269841,-0.00038985483870967715,0.253662,0.000488,2.9729848792822553,-0.7343166405556113,0.09401478978897426,1.007308953125,0.644287,1.313721,0.20722488139955875,2.0390307425107133,0.034075047619047616,0.0002795806451612915,1.313721,0.644287,2.614232318732108,-0.321617690297443,-1.279543746686396,9.68976621875,-39.061069,34.954198,16.261563868834887,-0.8948602507524819,2.6121410476190485,-0.10440779032258059,39.061069,0.480916,3.072408178496845,-1.303176076285821,1.4173501488045686,-39.267771953125,-97.78626,104.793893,45.85772455203496,-1.0716627571194561,5.229007619047619,-0.5246244677419354,104.793893,3.870229,3.0240987490956948,1.4472047179151726,1.2014073455283478,17.78566315625,-33.557252,52.343511,27.78721771098648,-1.5598270978803628,2.7961952857142855,-0.08495443548387091,52.343511,0.038168,2.6273350603273635,-0.29767420218915563,-1.4203594019706727,68.4316428327668,22.541070094236854,116.76307756868056,19.116583771931957,5.180014838715831,4.402407488973313,-0.5451761007603443,116.76307756868056,22.541070094236854,1.082688273978108,0.7474921651475686,1.4220044991722072,0.2133540744991886,1.9023670955687912,0.036573633169238944,0.00039267592590254283,1.4220044991722072,0.7474921651475686,102.17521457812501,31.732825,177.412214,28.99455713514306,5.590810588089778,6.891069920634918,-0.7184191129032258,177.412214,31.732825,2.784088028158309,-0.5226544447369219,0.39851746022822443,1.445892359375,1.047364,2.062989,0.2972578503840265,1.9696963042457063,0.05471458730158732,1.1790322580649342e-05,2.062989,1.047364,2.68352065141629,0.5488753746473874,-1.046420992342101
-0.184246109375,-0.777344,0.422363,0.3885466718197776,-0.5433411719907788,0.06067868253968254,-0.0070406935483871,0.777344,0.007568,2.6398620170624656,-0.19680159096654426,-1.5450621211472138,-0.02849584375,-0.297363,0.471924,0.1828950252762513,-1.587029993644132,0.04268196825396826,0.0001575161290322589,0.471924,0.000488,2.3732022880255372,0.8483942157923684,0.4322160761440803,1.018116,0.305908,1.514893,0.27689774851234583,4.952119591511173,0.06076780952380953,0.001008064516129034,1.514893,0.305908,2.747077183000984,-0.2120035778323515,-0.34329707500969553,-1.5078721562499997,-118.419847,33.381679,40.209053826024565,-0.2818926036950546,8.214467444444443,-0.5578675322580645,118.419847,0.496183,2.8633097794792364,-1.7472509859376706,1.745841962873416,-61.003578187500004,-158.839695,141.862595,82.671360019453,-0.8931180269516382,10.687022857142857,-0.700935741935484,158.839695,10.496183,2.5312842027820115,1.3844446530271384,0.8000466924730527,12.534828234375,-53.328244,46.0,27.420128552795266,-0.8625823119171148,3.4916999841269845,-0.04666337096774199,53.328244,2.022901,2.466807484368508,-1.0408046737124435,-0.24063172646487363,107.14330120280424,26.37593956189948,181.62949364903076,38.51900361770049,6.886180991686751,8.352673506246772,-0.34017854541080494,181.62949364903076,26.37593956189948,1.1331437244910925,0.7938106092223761,1.5833110803243942,0.21217793408670843,1.9945703193302238,0.059308495217537796,0.0006792311984377686,1.5833110803243942,0.7938106092223761,151.288644890625,35.70229,280.40458,53.95707761814946,7.8539662301773925,11.432085365079365,-0.09615861290322597,280.40458,35.70229,2.60076883360085,0.2567601283177225,-0.06913845653320871,1.521774390625,1.03833,2.156495,0.31414020403572496,2.076887887280537,0.09476925396825396,-0.0031265645161290302,2.156495,1.03833,2.7158221812985652,0.4756088507834996,-0.6794006936336077
-0.3017388125,-0.745361,0.080322,0.291969993477253,-0.1077625472757496,0.04817707936507936,-0.0014490967741935495,0.745361,0.012207,2.5989099613168083,-0.25333349370334085,-1.495299064338582,0.02417759375,-0.262695,0.322754,0.13710646942798488,-1.2286263537562572,0.029300793650793654,0.0003110806451612902,0.322754,0.000488,2.5651191417010604,0.3563690838617561,-0.6073417772100935,1.011238109375,0.637939,1.603516,0.17625737494799834,2.5135882897894626,0.04925434920634919,-0.0047134838709677425,1.603516,0.637939,3.044056581362511,0.8407790085982645,1.8716490505528736,2.557848234375,-112.51145,37.778626,44.43383806628472,-0.3357758343706352,5.392463396825398,-0.2616350645161288,112.51145,0.045802,2.099002014367321,-1.5846126979309474,0.9931041489653452,-54.15481871875,-150.442748,218.610687,111.86751719369855,-1.4531154868295812,8.953471444444446,-1.0472790000000003,218.610687,1.229008,2.1241601905467147,1.3839215230731907,0.4797083591148139,18.08396940625,-72.832061,48.076336,35.52448498827325,-0.6600985244671299,3.1485520476190474,-0.08150701612903223,72.832061,1.229008,2.631139150421694,-1.5943132207886033,0.9904325939377214,126.26762601856004,21.06419596391194,242.77070066055362,53.59360604324247,11.525277351031036,8.45836428366726,-1.0627050704596885,242.77070066055362,21.06419596391194,1.1051864516517573,0.8460649203920466,1.6192990902152695,0.16188256545029572,1.9139182480995953,0.04675117236140506,-0.004651028950318886,1.6192990902152695,0.8460649203920466,184.782084953125,23.450382,366.267176,82.89725845908235,15.618814908857347,12.933721079365082,-1.4194779516129041,366.267176,23.450382,2.697839597608552,0.5034243800081913,0.12638212032958762,1.439968140625,0.966065,1.955322,0.27811909185796735,2.0240066662181118,0.05890752380952381,-0.0037408870967741937,1.955322,0.966065,2.551915736636332,-0.18478289316393542,-1.1581578253287537
-0.002510062500000002,-0.669922,0.472656,0.32432305446174015,-0.7055388537770069,0.03218392063492063,-0.0005552258064516124,0.669922,0.02124,2.656306653201802,-0.13819947279939127,-1.005847350351182,0.2422675625,0.059814,0.79541,0.16246541916640797,13.298057310997425,0.03249399999999999,-0.0017011129032258058,0.79541,0.059814,2.1592946787347573,1.532969115121733,1.904746275749682,1.029487625,0.585693,1.505127,0.19370276871303435,2.569822415497539,0.04829723809523811,0.0021657741935483853,1.505127,0.585693,2.903779924664269,0.11660007012124206,0.3681368220288572,-3.870825390625,-71.129771,29.725191,24.24837769604289,-0.41790083929835786,2.5366533492063486,-0.12201427419354847,71.129771,0.19084,2.5792269839106714,-0.9987987412441414,0.6394593275415756,-33.866412203125,-98.244275,70.251908,51.338651660728075,-0.7150738096443787,4.636859301587303,-0.09160304838709678,98.244275,0.89313,2.620065785553653,0.6266400625477411,-0.9577381971617864,29.0974475625,-37.175573,79.099237,29.063903969658544,-2.1277207213457072,3.387253158730159,-0.020807677419354853,79.099237,0.129771,2.717856294446942,-0.0619455442639629,-0.5477981741847313,70.7460958682973,7.515863349577145,111.66118387583744,32.00558738416221,14.856734174407212,5.150322440044777,-0.00347265449594907,111.66118387583744,7.515863349577145,1.1131452855942672,0.6425716360391268,1.6448379098661972,0.2159629070708297,2.5597735997267725,0.049709576433608474,0.0014144457636878663,1.6448379098661972,0.6425716360391268,105.98377859375,10.137405,165.015267,47.01406079405311,16.277860754305465,7.661941142857144,0.039645419354838604,165.015267,10.137405,2.6444890855607075,-0.6161289228092173,-0.7605472696904512,1.5522651875,0.9321280000000001,2.313965,0.31620856366589256,2.4824541264719007,0.07291284126984125,0.0012955322580645112,2.313965,0.9321280000000001,2.490083327608567,0.19066521597835495,-0.24110835150540977
-0.014839187499999996,-0.555176,0.414062,0.2845112975767771,-0.7458211450062683,0.037260523809523806,7.88709677419405e-06,0.555176,0.00415,2.704939550117998,-0.03758497531909738,-1.130371551841879,0.195274375,-0.015625,0.790527,0.16382317442828992,-50.593728,0.03532673015873016,-0.001228580645161291,0.790527,0.002197,2.6603480057266853,1.5231511929134374,2.628454727552487,1.06144328125,0.799072,1.60083,0.19259231694242884,2.003361399223099,0.04444131746031746,0.00036227419354838456,1.60083,0.799072,2.484876767019874,0.6501599719992948,-0.19641662059677456,-17.10949428125,-71.21374,36.717557,19.23909636175176,-0.5155965267376773,4.117775365079365,0.028687516129032274,71.21374,2.458015,2.714409907880286,0.24125925603058576,1.4048466369612056,-34.55427,-115.778626,140.503817,83.76556454148084,-1.213555747327663,5.498848904761906,-0.149716822580645,140.503817,0.793893,2.3826211716579646,0.751975250672999,-0.8842521624540929,18.623688,-57.351145,73.977099,34.977126651125914,-1.2898975077132286,3.9356597777777775,0.020930806451612945,73.977099,1.351145,2.4841475068681627,-0.16240409618777502,-0.4198300655695131,94.27299703074887,24.223415414060135,160.76393109422753,38.00556167249656,6.636716100773898,5.6304554427223295,-0.16043460707683102,160.76393109422753,24.223415414060135,1.1238909129728103,0.8081956483364656,1.6621564423016866,0.21260865976424514,2.0566263202764765,0.04218333450405643,-0.00022392002582720887,1.6621564423016866,0.8081956483364656,133.587309125,34.229008,243.847328,52.4966705503163,7.123996348360432,8.611050523809523,-0.1434375645161287,243.847328,34.229008,2.6736623273091746,-0.23483665730393832,-0.6156027543815701,1.5032310625,0.9213870000000001,2.335205,0.33961373799656003,2.5344453524957484,0.06269761904761907,-0.0018350000000000024,2.335205,0.9213870000000001,2.55546315388865,0.39446037778235343,-0.45846761165065253
-0.0338554375,-0.622314,0.270752,0.255746163977182,-0.43507296959412767,0.02791342857142857,-0.002744629032258064,0.622314,0.000977,2.70690356604101,-0.7187452115497404,-0.47713627585196683,0.107234921875,-0.080078,0.625,0.11939162529061023,-7.804890232023777,0.026293603174603174,-0.0024453387096774193,0.625,0.000732,2.780197820793049,1.6160270636502556,4.804028235437359,0.99412153125,0.646484,1.36377,0.15751374275956365,2.109518565037959,0.04240298412698412,0.002016112903225808,1.36377,0.646484,2.964719526693802,-0.07567826362496344,0.3811284879853014,-9.77922234375,-52.198473,64.351145,21.851969971189035,-1.2328166189842373,2.3322428571428575,0.13494214516129033,64.351145,0.450382,2.6225810493867563,1.2783381550187576,2.1262021382487157,-29.351860765625,-124.007634,74.167939,68.32972327778657,-0.5980917190952938,4.311038444444445,0.0061561129032256644,124.007634,0.78626,2.6234285803463027,0.06341399380479347,-1.5832166858537269,16.3239504375,-20.0,43.282443,19.739457813063417,-2.16412215,2.498485428571428,-0.09344990322580644,43.282443,0.206107,2.6268698247687845,-0.25651772929312583,-1.253045756840667,75.26941657500016,28.725527965448624,130.31262460348177,31.996117570513913,4.536474482217462,3.9010566939962983,0.13304300675257802,130.31262460348177,28.725527965448624,1.0365262273787086,0.7108650639397044,1.4403948701036808,0.1727468398816435,2.0262563785605523,0.04125138502867718,0.0020058414183418065,1.4403948701036808,0.7108650639397044,106.257991515625,43.015268,179.435115,40.90432964061712,4.171428503014325,6.072579682539684,0.04740212903225797,179.435115,43.015268,2.7478906682002733,0.11245629506009434,-1.319204626971512,1.324375140625,0.931884,2.048829,0.2918971503165938,2.198588021685102,0.059942396825396815,0.0012915645161290352,2.048829,0.931884,2.7976295406163905,1.3163866172737024,0.7915719709049966
-0.622051203125,-1.474121,-0.104248,0.4062936391639491,0.07071875375223607,0.05282349206349206,-0.00042529032258064475,1.474121,0.104248,2.4432092082151518,-0.42826963833889703,-1.14781554489424,0.1124038125,-0.48584,0.450439,0.2502667525512243,-0.9271344475547505,0.053501634920634915,0.0001614677419354842,0.48584,0.002686,2.5006905943310733,-0.8383520117174039,-0.3980424568634584,0.749298078125,0.496826,1.016357,0.14042067984558182,2.0457001042618543,0.04511950793650792,-9.450000000000094e-05,1.016357,0.496826,2.750077077198553,-0.17690935350918338,-0.9911805428295657,-9.576574390625,-55.740458,45.587786,28.662422096643567,-0.8178581166304734,4.741063825396826,0.07178033870967744,55.740458,1.198473,2.6768455911776092,0.3508216944429368,-1.0748247757352414,55.992247109375,-26.145038,122.343511,40.71394741816359,-4.679416071225447,6.021446793650794,-0.24119675806451607,122.343511,0.419847,2.503181534111093,-0.7721157678523881,-0.5994385176888959,-64.138716625,-120.839695,26.122137,39.45861565519357,-0.216171821684919,5.097782619047619,0.1402364032258065,120.839695,0.862595,2.5775339370316424,0.21072512311320135,-0.6627895243253388,100.1686565419627,29.131203910603503,154.23335461970927,36.05900365430252,5.2944380566286755,5.600521509770006,-0.01850682846683407,154.23335461970927,29.131203910603503,1.0790759598452173,0.8762018954995475,1.63407658375671,0.20204643156666557,1.864954403944854,0.04359053902710689,7.715114273998939e-05,1.63407658375671,0.8762018954995475,154.85019075,42.526717,239.290077,56.75416376266888,5.626817536843957,8.580516285714287,0.05897562903225807,239.290077,42.526717,2.641530384972419,-0.03412453552444253,-1.3333549926374304,1.61536021875,1.172852,2.387452,0.3208163774612821,2.0355952839744487,0.06622787301587306,0.0008308387096774158,2.387452,1.172852,2.4331573285181998,0.8474332762584492,-0.518827329822722
-0.745494890625,-1.047119,-0.05127,0.3132401967561716,0.04896291634475165,0.020558238095238095,-0.0008505483870967742,1.047119,0.05127,2.2851780318460246,0.7838115227799638,-0.8205007860099323,0.11946103125,-0.268555,0.563965,0.28500783427700516,-2.099998138183985,0.020147396825396825,1.1822580645161251e-05,0.563965,0.019287,2.6494000497097856,0.13432869040922626,-1.515970939021966,0.768588984375,0.507324,0.956055,0.15478181717547643,1.8845057596328973,0.017515984126984126,-3.1499999999999715e-05,0.956055,0.507324,2.606145033308507,-0.38637066668031556,-1.4275765848516502,-20.85436546875,-32.89313,0.396947,7.402153368370334,-0.012067778286833756,1.3544166507936508,-0.03188870967741935,32.89313,0.396947,2.7623976126705934,0.783959418342909,0.31303491286388674,63.082896,29.114504,87.519084,18.71542461763841,3.006030396396243,2.246092349206349,0.051465161290322546,87.519084,29.114504,2.647623804068741,-0.3188344567069783,-1.4658083367681938,-43.7331823125,-74.648855,11.80916,20.613877337994005,-0.15819613040280392,2.272506968253968,-0.05577443548387095,74.648855,1.847328,2.61044431815408,0.6681734754703582,0.2560581411486802,80.69600307551843,35.81772794319379,113.09348284783769,25.340850481027584,3.157472272590873,2.5268360417147138,0.06165884344878729,113.09348284783769,35.81772794319379,1.1641868908239252,0.8912463235318281,1.2861634583212975,0.0751624125321553,1.4431066074129688,0.015882220747925183,-0.000533387773867205,1.2861634583212975,0.8912463235318281,128.3767891875,48.839695,180.541984,42.21524509857375,3.696623903978107,4.196776857142857,0.11819750000000004,180.541984,48.839695,2.6667427437799236,-0.4133704929409314,-1.1899229764968633,1.77343753125,1.260743,1.963134,0.12727261363166065,1.557124647925866,0.028963460317460346,-0.0006260967741935523,1.963134,1.260743,2.6813010355962446,-1.9799663921941049,5.567928458487918
-0.76700975,-1.116455,-0.570801,0.1386977803608114,0.51126198548083,0.03188950793650794,-0.00032290322580645224,1.116455,0.570801,2.5586257950552604,-0.32997897012526545,-0.8864260177878132,0.203064,-0.297119,0.703369,0.2147648771484834,-2.3672972781949317,0.05713280952380953,-2.3629032258063974e-05,0.703369,0.010986,2.4401765111560025,-0.26217620276650117,-0.6381490609267244,0.579937,0.294189,0.889648,0.161009739429165,3.0240695607245685,0.02835522222222223,-0.0008308709677419364,0.889648,0.294189,2.6135549054350635,0.004585674656523689,-1.0343939112524874,-3.228053421875,-42.21374,17.145038,15.848494211448262,-0.40614828252602114,3.9899430634920643,-0.02093080645161298,42.21374,0.221374,2.166628572779597,-1.0913270351690485,-0.25884569200250107,31.642533453125,-29.740458,61.931298,28.08405490583244,-2.08239220794784,3.067369444444444,-0.14442254838709678,61.931298,0.145038,2.3981439198134638,-0.782252261492779,-0.7336193247556135,-28.458969562500002,-66.48855,20.099237,27.60971811337178,-0.3022962149121916,2.8804071904761908,-0.016375290322580685,66.48855,0.160305,2.566180416973681,0.3936600188988409,-1.1970977150373356,55.83263462639383,9.481601184552163,90.19278889604647,22.04356798678603,9.51240061045728,4.008137227185196,-0.06666304888737354,90.19278889604647,9.481601184552163,1.0231533976752318,0.9115995048621955,1.290318483217225,0.09498845772306909,1.4154444757100648,0.028865950931406696,-0.0008898604451695736,1.290318483217225,0.9115995048621955,83.89396471875,14.022901000000001,133.870229,32.54542738748271,9.54654311543667,6.591299952380954,-0.060822483870967656,133.870229,14.022901000000001,2.7377712706400423,0.048172007174655064,-1.135604816183604,1.59655765625,1.253662,2.184082,0.20245897484395217,1.74216176289941,0.04918087301587303,-0.0014294032258064572,2.184082,1.253662,2.617079319328542,0.7754903367604086,0.5101111124253408
-0.77428815625,-1.762451,-0.175537,0.5079657778168274,0.09959822996497492,0.06706115873015875,-0.00244535483870968,1.762451,0.175537,2.495418333706943,-0.4744165555796633,-1.3230822795661727,0.12971878125,-0.498291,0.428711,0.1995666941980199,-0.860362719776195,0.043127634920634914,-0.0009096129032258065,0.498291,0.002197,2.3595073518493406,-0.681996643172068,-0.057918821687933164,0.58160015625,-0.15625,0.861084,0.3015356599437639,-5.5109376,0.054020920634920644,-0.0006457903225806455,0.861084,0.014404,2.1257976657157345,-0.9842334700819839,-0.5664519638831194,-2.717795796875,-100.29771,25.610687,27.61284949771166,-0.25534667740669253,5.951048126984126,-0.01428219354838751,100.29771,0.519084,2.432861433566711,-1.5377208272926157,1.669574207726745,58.796278671875,-33.381679,126.580153,50.76545791158247,-3.791904924854139,7.973464158730158,0.01391283870967739,126.580153,0.10687,2.69183164979857,-0.297229322786798,-1.3147345373857975,-32.367008609375,-86.816794,86.770992,46.754798099877846,-0.9994724292629373,5.648854968253967,-0.1736025483870967,86.816794,1.251908,2.212010278806872,0.7678811202977269,-0.17492590450041545,89.82579501756425,6.960576862907053,147.60869637528347,43.73209316077682,21.20638839029146,8.238973542705592,-0.17113620967531876,147.60869637528347,6.960576862907053,1.120897042474831,0.7912244125183449,1.8516558922140474,0.2866827706660295,2.340241103431722,0.06515876755871923,-0.0028801368172793455,1.8516558922140474,0.7912244125183449,132.718869359375,10.030535,223.20610699999997,68.75351462448438,22.25266219598456,13.39767357142857,-0.06217680645161257,223.20610699999997,10.030535,2.549596135901489,-0.11568293356676584,-1.507953556152362,1.5611915,1.177734,2.532959,0.3048910651166027,2.1507055073556507,0.10375580952380953,-0.004000758064516131,2.532959,1.177734,3.1787641533219935,1.584505402801147,1.903938823666433
-0.7763710625,-1.650146,0.17627,0.688723449881145,-0.10682085100348698,0.044863777777777766,-0.000704870967741933,1.650146,0.006836,2.5132578461206307,0.08433441891429219,-1.6736347785742074,0.196475984375,-0.194336,0.541748,0.22510197709182958,-2.7876873044623744,0.021546396825396823,-0.0008623870967741934,0.541748,0.014404,2.767439550117998,-0.20556785278441844,-1.1772625733954862,0.5653419375,0.081787,0.984619,0.27572873388415853,12.038820350422439,0.03333487301587302,-0.0009962419354838721,0.984619,0.081787,2.6838350426188393,-0.3950597158159718,-1.1102034274381007,0.36903626562500014,-41.641221,31.954198,20.384064144335884,-0.7673693814117506,3.741790825396826,0.008372306451612849,41.641221,0.427481,2.6919175556534074,-0.421832949608922,-0.7415160883293126,68.708373140625,-67.473282,188.923664,90.51117641638437,-2.7999773895688076,8.280867555555558,0.07707459677419369,188.923664,4.59542,2.63134111950021,-0.030963570697357015,-1.5183441123636876,-45.7305581875,-84.045802,29.450382,35.991592561996896,-0.35040872118752586,4.139949142857141,-0.19958138709677425,84.045802,0.572519,2.525599704144249,0.9626108645576152,-0.5682775191731384,114.16985594527485,17.136971005402938,204.02646423841196,59.84908327070335,11.90563164132603,6.648283388558208,0.08925037799712854,204.02646423841196,17.136971005402938,1.2056012206441533,0.6720094949812837,1.668131405939592,0.3173510371269572,2.482303328148736,0.03665312588839183,-0.0007139552718272981,1.668131405939592,0.6720094949812837,162.5231393125,24.793893,300.19084,80.98786268808934,12.107450814601805,11.03744092063492,0.03139619354838679,300.19084,24.793893,2.6772542590659323,0.18731594148410974,-1.1552168007552994,1.636684421875,1.001709,2.1245119999999997,0.30423297146977196,2.1208874034275422,0.051102825396825376,-0.0004213709677419347,2.1245119999999997,1.001709,2.8238347768684697,-0.3423605833674963,-0.7674072024233882
-0.896160125,-1.815186,-0.149902,0.5239559647667453,0.08258217064256776,0.05777222222222224,0.0001299516129032246,1.815186,0.149902,2.7179965909961936,-0.1667422599959295,-1.335482981797724,0.11775971874999999,-0.324707,0.723877,0.2290045289915678,-2.2293236671830297,0.06867707936507936,-0.0012089032258064483,0.723877,0.000977,2.472834034926227,0.29865766918279046,-0.06529443279515101,0.47867965625,-0.042725,0.872559,0.24561017574818547,-20.4226799297835,0.04208133333333334,-0.0009490161290322572,0.872559,0.025146,2.640803847964635,-0.6473366807447769,-0.5851001308776431,0.4617128437500001,-36.748092,51.152672,19.548794676757502,-1.3919817115947137,7.237610571428571,-0.10022162903225833,51.152672,0.335878,2.759815029679284,0.8789585397923515,0.5402291030336581,75.193344515625,-23.664122,160.29771,67.22055968467107,-6.773871010299897,7.717072619047618,-0.0546663387096775,160.29771,0.015267,2.549496786023088,-0.0971633648528919,-1.5842215924848313,-46.53936065625,-133.496183,72.305344,57.58177241657575,-0.5416285497840789,6.986792698412699,0.009111080645161257,133.496183,0.137405,2.602959141844628,0.29840442873975986,-1.1557446936843174,110.74497708024718,12.236650548857599,186.78421609505392,60.84069112084137,15.264325425432036,8.09739761273095,0.07511834094744882,186.78421609505392,12.236650548857599,1.1407466418499717,0.6207194273292885,1.8245427897478863,0.35783816375076655,2.9394001692490535,0.051972381236918004,-0.0009170978991839972,1.8245427897478863,0.6207194273292885,156.408635484375,19.717557,292.15267200000005,90.25754074250628,14.816879799054217,11.948503698412697,0.0886481129032256,292.15267200000005,19.717557,2.660917749887837,0.007627430904683196,-1.5710802280938068,1.5780639375,0.979248,2.262695,0.3551224396202039,2.310645515742692,0.08970815873015871,-0.0020279677419354843,2.262695,0.979248,2.7288870501796976,-0.042518308847941756,-1.048838789564926
-0.8466300625,-1.668701,-0.301758,0.4215372983425457,0.18083407392936185,0.04973485714285715,-0.0006300483870967762,1.668701,0.301758,2.5622469794650535,-0.5490497428420921,-1.0983478772100288,0.135589546875,-0.303223,0.531982,0.18224306954035271,-1.7544249611671936,0.04668125396825397,-0.00024808064516129176,0.531982,0.001709,2.753182799882107,-0.08813997863910396,-0.11481772325547235,0.496860515625,-0.001953,0.863525,0.2401842829091923,-442.15309779825907,0.046898158730158734,0.00010237096774193534,0.863525,0.001953,2.616920544871055,-0.5633450073795229,-0.9072719695213398,-5.03721371875,-49.503817,37.633588,23.91118502757263,-0.7602158839590087,7.907912253968255,-0.03779856451612894,49.503817,0.503817,2.762671708818688,-0.004685959094146352,-0.9544320221012961,68.98676053125,-15.458015,188.40458,61.81771691258987,-12.18814834893096,11.720828777777776,0.23971927419354844,188.40458,0.854962,2.655767842500946,0.4648280864690959,-0.968766826849087,-39.798186921875,-152.40458,53.045802,59.46427181050109,-0.34805910688510805,6.971646698412698,-0.06266929032258062,152.40458,0.29771,2.584634714829857,-0.33316901143372185,-1.1123399836190715,106.95515339291677,10.318331674905007,192.63517706021548,52.70408468940492,18.669217382178104,10.313510932049425,-0.0260197521142864,192.63517706021548,10.318331674905007,1.0824404276836972,0.7987692334936293,1.7015894781603464,0.27558055636511286,2.1302641699380347,0.044169216257562254,-0.0005153849334285088,1.7015894781603464,0.7987692334936293,145.155653578125,15.244274,261.793893,71.00984046441074,17.17326079287213,13.493396269841266,0.042230999999999984,261.793893,15.244274,2.71299703337069,0.07463212264893547,-1.2886221989398046,1.5339965625,1.169677,2.1821289999999998,0.28182184176937347,1.8655825497124416,0.06858411111111112,-9.846774193548431e-05,2.1821289999999998,1.169677,2.3100245739248972,1.0601942845758348,-0.30847613383187733
-0.696678125,-1.599609,-0.208252,0.44107128431194387,0.1301893150138565,0.03834944444444446,4.332258064516164e-05,1.599609,0.208252,2.4654759580808934,-0.4680501070257486,-1.3067798691956085,0.034786265625,-1.076416,0.35791,0.33747000972089886,-0.3325015607348832,0.054947111111111106,-0.0004843387096774189,1.076416,0.015381,1.9804176876204835,-1.3823948976556593,1.0156177029207516,0.651222203125,0.113281,0.963135,0.25532378955035684,8.502176004802216,0.04135276190476193,-0.00023232258064516062,0.963135,0.113281,2.2436092649171315,-0.9435283547172696,-0.6513084661516442,-6.295801578125,-39.030534,23.083969,17.756565112524267,-0.5914335940164179,3.048588380952381,0.03915291935483857,39.030534,0.183206,2.735371641566629,0.09517911297511455,-1.1146336787680322,39.26467078125,-15.503817,83.610687,32.616652959729535,-5.392909823432514,4.722767492063492,-0.25141588709677415,83.610687,0.267176,2.6165544988290383,-0.35965754762327035,-1.372587964533964,-23.80999521875,-114.778626,79.793893,51.73575731527705,-0.6951981896002135,5.976735714285713,-0.22088156451612892,114.778626,1.374046,2.4857820870323524,-0.198529662408047,-0.7761356258483199,71.18420649348076,16.616008104672375,125.76145578140397,33.02232914069206,7.56869249155218,5.073041267993935,-0.11877992979835252,125.76145578140397,16.616008104672375,1.1049216761509786,0.8036678820414562,1.7519052888352729,0.24187888863183307,2.179887149882273,0.03518229887809691,-4.267800948850168e-05,1.7519052888352729,0.8036678820414562,100.530057203125,23.328243999999998,187.18320599999998,51.82756089301414,8.023887524496057,7.653338063492064,-0.02166953225806468,187.18320599999998,23.328243999999998,2.733062853919819,0.24841548412794578,-1.2795405420960335,1.629467,1.1774909999999998,2.6691890000000003,0.33426359677560596,2.2668445024208257,0.05808217460317463,0.0007914677419354853,2.6691890000000003,1.1774909999999998,2.6499988379287767,1.2348998086770668,1.2096920957665596
-0.60155103125,-1.400146,0.143066,0.4266347986299278,-0.10217934415410965,0.03701631746031746,-0.00044103225806451626,1.400146,0.012451,2.6298458170526895,-0.3200150592292318,-0.9453863325592113,0.052623781249999994,-0.735352,0.822998,0.35433987748019774,-1.1191891774279528,0.045758904761904765,-0.004386645161290321,0.822998,0.001709,2.436388673760707,-0.6002413929506432,-0.18158505420600735,0.640617328125,0.26416,0.824463,0.16750895661190207,3.1210743488794668,0.026560888888888887,-0.0014530322580645152,0.824463,0.26416,2.3408525618198133,-0.9734917648255814,-0.4818186052558384,-19.387643046875,-71.343511,24.832061,19.66130517802281,-0.3480633438407594,4.293469031746032,-0.15919724193548387,71.343511,0.358779,2.4415786292636237,-0.1401819805129064,-0.4901714075845529,33.48437496875,-17.435115,85.496183,26.358466004517496,-4.903677606944377,3.6501878571428565,0.022408274193548395,85.496183,1.923664,2.6877796246274084,-0.012411203549102393,-1.0502210572348214,-30.067032484375,-98.801527,32.687023,44.26446144973369,-0.3308352005531251,4.734157285714284,-0.1763112580645161,98.801527,0.450382,2.6023266522092303,-0.3014022559540253,-1.354521643407635,63.27943583826962,3.5558099045625315,135.47400686873345,37.5773131740662,38.099338970540586,5.082525082434023,-0.27491958795315247,135.47400686873345,3.5558099045625315,1.0285890839163168,0.7133947332452071,1.603770330055086,0.21947572571844898,2.2480826607165887,0.03386869069919323,-9.888497195341719e-05,1.603770330055086,0.7133947332452071,98.31071084375,5.786258999999999,233.999999,61.77393516826971,40.44063686053459,8.834363285714288,-0.42489535483870994,233.999999,5.786258999999999,2.557675436300401,0.25100162518934427,-1.1940279804497076,1.553947328125,1.0585939999999998,2.4665529999999998,0.33430371047720553,2.3300273759344945,0.05548588888888889,-0.0024925806451612815,2.4665529999999998,1.0585939999999998,2.6135546046314686,1.0246754221513232,0.515065683519143
-0.72037121875,-1.110596,-0.127441,0.2578067468648381,0.11475009814550026,0.024197079365079376,0.0002323387096774216,1.110596,0.127441,2.5113401825310726,0.8841775182064404,-0.19971614351003675,0.277343765625,0.037598,0.791748,0.2567725449325427,21.05824777913719,0.018461634920634927,3.951612903226065e-06,0.791748,0.037598,2.166267829243593,0.9828242984613484,-0.6205578332931032,0.534797765625,0.180908,0.727295,0.17477734625196914,4.0202478607911205,0.025995126984126978,0.00013780645161290316,0.727295,0.180908,2.5564777096116282,-0.7309664563196624,-0.975234703714718,3.5874284843749997,-47.778626,37.763359,24.58632810384209,-0.7903818540114569,3.7665092063492063,-0.16855454838709677,47.778626,0.282443,2.67043445998358,-0.6146838326963643,-0.7854506250293061,13.11176046875,-18.900763,28.824427,11.830660968114547,-1.525040391226534,2.931418793650794,0.019207096774193508,28.824427,0.908397,2.495046390747766,-0.4722854791068076,-0.49567554982142825,-46.338382578125,-97.427481,-6.740458,33.07573751997424,0.06918436082731114,2.873137031746032,0.0514651451612903,97.427481,6.740458,2.446131624603771,-0.3309367146439905,-1.5002537021979614,58.14884708011253,16.689910627492466,102.01931508201928,27.79472668910926,6.112633995413247,3.6288691071386747,-0.05549924488726412,102.01931508201928,16.689910627492466,1.0182542704722752,0.8852172921254984,1.249701743076323,0.07419397186315985,1.4117457421958621,0.022977562064025663,0.0004457680309601955,1.249701743076323,0.8852172921254984,82.8529340625,20.717558,142.343511,37.25815851883659,6.8706703270723315,5.725433063492065,-0.052080790322580554,142.343511,20.717558,2.650209810053732,0.2215752250105115,-1.3027899482898686,1.53251275,1.20581,1.814209,0.18616965698131274,1.5045562733764024,0.040783015873015874,0.0007836451612903229,1.814209,1.20581,2.6869081917541977,-0.1483685882169486,-1.338566642006374
-0.791679359375,-1.289307,-0.273438,0.3601806027651923,0.21208137394739968,0.03557092063492063,-0.0001693225806451623,1.289307,0.273438,2.59272442259379,0.14591518049428018,-1.5126576163262264,0.161567703125,-0.576904,0.50708,0.32632802479823886,-0.878967731199645,0.04872734920634921,-0.0008230000000000011,0.576904,0.012451,2.348638691469231,-0.8556657848900243,-0.5987293249156003,0.57775503125,0.110352,0.927979,0.24680739167836596,8.409263085399449,0.03807826984126984,-0.0008584354838709681,0.927979,0.110352,2.4105620080542525,-0.6864117213759687,-1.0209156444189955,15.843630671875,-40.732824,61.763359,27.066918405817123,-1.5163043691741087,5.40482246031746,0.05528195161290334,61.763359,1.862595,2.609914591500639,-0.35500959019087197,-0.6210829034632472,25.226741390625,-34.78626,73.740458,30.556401721354987,-2.1198156398532064,5.634920714285714,0.0028318064516129364,73.740458,0.290076,2.701837250428125,-0.3710162468556618,-1.148793255212328,-51.866769984375,-134.328244,118.244275,76.33308814695704,-0.880263684530857,6.872773539682541,-0.15907412903225795,134.328244,0.343511,2.4431847279511483,0.8957746041159085,-0.4442660680504047,99.89624198359901,38.847563122007855,146.08951568370261,31.460289027455293,3.7605837778004725,5.547756960528531,0.007731421810009828,146.08951568370261,38.847563122007855,1.1203422799767684,0.8842974562136883,1.4694749779455245,0.15609716083744535,1.6617428531768044,0.02981903228074305,-6.974044295176939e-05,1.4694749779455245,0.8842974562136883,143.260376828125,58.717557,214.87786200000002,42.77031117586928,3.6595163862147744,8.376348047619048,-0.0450627903225806,214.87786200000002,58.717557,2.728419235259032,-0.06701297118109739,-1.0622433342298374,1.7011146875,1.44336,2.153565,0.18239755578753206,1.4920498004655802,0.05271501587301587,-0.0001496290322580642,2.153565,1.44336,2.3790113101054176,0.36224547914257044,-0.3071654008722762
-0.744876875,-1.092773,-0.248779,0.26066638848825135,0.2276584432448459,0.025402238095238092,-0.001937370967741936,1.092773,0.248779,2.6553165777428256,0.5398592366947089,-1.1041384015753797,0.126064296875,-0.28125,0.498047,0.27204320200359866,-1.7708337777777778,0.03431920634920635,-0.004481145161290322,0.498047,0.0,2.598099880768375,0.06421567683350385,-1.4356411801130862,0.601551015625,0.285645,0.932861,0.20403419975757506,3.2658054578235225,0.023468523809523814,-2.7564516129031623e-05,0.932861,0.285645,2.813215816128148,-0.18548304997085788,-1.364361551490104,4.2932967656250005,-44.221374,68.923664,36.657490418670406,-1.5586052120406753,3.8180056031746035,-0.12299925806451613,68.923664,2.503817,2.558445347233394,0.1902989964694665,-1.1928968670378488,13.808206140625,-20.435115,34.320611,17.410138926461638,-1.679491943157648,2.5677935238095237,-0.085570064516129,34.320611,0.427481,2.552819496119307,-0.6672019699430928,-0.8299220937338179,-39.7971135625,-140.152672,61.496183,68.6378309800521,-0.43877995419166893,5.653459365079364,-0.0904949516129032,140.152672,1.083969,2.673848324575485,0.018627202148551757,-1.446206166951797,80.81087417139302,20.350618384090517,154.48088775410514,39.31093963850659,7.5909677454751705,4.931045860988174,-0.15321616898774532,154.48088775410514,20.350618384090517,1.0514427063927838,0.8404280024957521,1.2588114544593245,0.08891040361668685,1.4978218844697373,0.023186013083605773,-0.0014923451517497336,1.2588114544593245,0.8404280024957521,119.38573478125,28.167938999999997,224.96183200000002,54.7475453441237,7.986449842851479,8.138131603174605,-0.3015267258064514,224.96183200000002,28.167938999999997,2.708889482865939,0.4540030333369102,-0.7877089060254856,1.5916480625,1.238282,1.983886,0.1834991227980309,1.6021277867238641,0.047863238095238084,-0.005044241935483871,1.983886,1.238282,2.382832318800139,-0.6061487853639963,-0.6733714901604553
-0.89728165625,-1.719238,-0.486816,0.4181155838394498,0.2831580037202528,0.03571815873015874,-0.00019688709677419304,1.719238,0.486816,2.345089572879714,-0.7058307873041292,-1.067890734701268,0.09052275,-0.367188,0.466553,0.24391244028244988,-1.2706106953386276,0.03379219047619048,-0.0006891129032258066,0.466553,0.006104,2.6339373957452343,-0.11958250997301573,-1.23457913479713,0.404308328125,-0.022705,0.712402,0.19810385111679008,-31.376436908170007,0.03317595238095238,-0.001421532258064517,0.712402,0.008789,2.6462141582459062,-0.600209772627196,-0.7593297867609183,18.355796734375,-17.251908,53.923664,21.929482580698238,-3.1256637816524413,3.437174333333333,0.022654516129032305,53.923664,0.206107,2.7331335294955226,0.02107697345126661,-1.313230458422088,46.690243328125,-46.083969,133.748092,60.995198948776086,-2.902269377014814,5.193141841269843,-0.4401625161290323,133.748092,2.442748,2.5045524465400564,-0.26705412330227785,-1.3155200934076592,-69.477695609375,-112.526718,40.129771,42.94851575722831,-0.35662437964288624,4.083605984126985,-0.039768532258064614,112.526718,3.19084,2.3580258797605222,0.9533334032224181,-0.11750342565905258,108.8589055644258,57.40203924552491,171.6755727996892,38.31667433374184,2.9907573852103715,4.250692360258268,-0.45623601972245104,171.6755727996892,57.40203924552491,1.0716920392378089,0.7274146242969,1.8053063313701085,0.31477452822899715,2.481811983248303,0.035922198093776704,-0.00012081626629209261,1.8053063313701085,0.7274146242969,164.523020078125,81.435114,257.23664099999996,55.27487019876105,3.1587926677428113,7.891675682539683,-0.5959123387096773,257.23664099999996,81.435114,2.698476859632983,0.2966782544562553,-1.4241882345991985,1.518981921875,1.106933,2.428467,0.3000437489456741,2.1938699090188836,0.05243201587301589,-0.0019137580645161275,2.428467,1.106933,2.6112543254364557,0.9306146849736957,0.4775196727262734
-0.526908828125,-0.821533,-0.068115,0.2410301852596545,0.08291206804839245,0.04351523809523808,0.00034651612903225813,0.821533,0.068115,2.3398757950552604,0.7705108466400922,-0.9712090584534052,-0.021568296875000004,-0.444092,0.380127,0.2411982418942533,-0.8559645298721886,0.04655339682539683,0.00018114516129032063,0.444092,0.010742,2.7561335703689367,0.0740626189153703,-1.4326333642132187,0.763908375,0.283936,1.05835,0.1438821766010107,3.727424490025921,0.12405061904761905,0.0015081451612903218,1.05835,0.283936,2.6319248344618207,-0.6156175219421858,0.7700777415910589,-25.928435109375,-75.770992,30.503817,25.45146298407207,-0.40257908989762203,4.933842238095239,0.1168431451612903,75.770992,1.473282,2.5935426801821118,-0.08275668762759962,-0.5723938220052389,27.54914121875,-36.030534,69.557252,29.681702060628908,-1.9305084959329217,5.85883915873016,0.004186161290322604,69.557252,0.267176,2.6799285626377785,-0.28539314464353577,-1.1769602539470136,-17.720062015625,-41.244275,11.061069,14.26010448712031,-0.26818434800951163,3.3217012380952373,-0.20906180645161287,41.244275,1.984733,2.64350233099689,0.5151476996502732,-0.6983681279347049,54.72426590554175,16.02088201490533,88.8968877301348,21.512596510970823,5.548813582637204,4.310634499563931,0.12837121469873067,88.8968877301348,16.02088201490533,0.9907872611166012,0.7597424137732471,1.3596687569661958,0.1227358554400654,1.7896444009403467,0.107013982837286,0.0016063221416037579,1.3596687569661958,0.7597424137732471,83.624642125,26.603054,141.206106,34.216007667273104,5.307890815843925,7.932872857142855,0.11265698387096783,141.206106,26.603054,2.889541725602671,-0.2478315869475137,-1.3329550905184773,1.50901790625,1.0688469999999999,2.1977539999999998,0.2363550562040031,2.056191391284253,0.1622685238095238,0.001815290322580643,2.1977539999999998,1.0688469999999999,2.7801815481772487,0.5351769231638482,0.23872684711376913
-0.603115109375,-0.830566,-0.288818,0.14412366192422446,0.3477363629139647,0.04359650793650793,-0.0012285645161290329,0.830566,0.288818,2.4363058740448515,0.8006979286739024,-0.617538100064591,-0.099246984375,-0.299805,0.144043,0.12267424022343311,-0.4804556294925035,0.0362413492063492,-0.0017798548387096766,0.299805,0.000732,2.857912751096862,0.33948445194160115,-1.1380892519839785,0.729213734375,0.288574,1.03833,0.14294957665657287,3.5981412046823347,0.10487579365079366,-0.0016420483870967738,1.03833,0.288574,2.3629518622437495,-0.4392512566675392,0.4168421812324521,-27.8291985,-85.938931,8.129771,15.545820794781218,-0.09459939640161454,4.184175349206348,-0.16547648387096775,85.938931,2.343511,3.441716050561219,-1.3234483156612888,4.526340282623353,32.88597328125,-25.068702,69.015267,31.299658871280144,-2.7530450918440055,4.199684968253969,-0.2322088225806452,69.015267,1.305344,2.530792485947682,-0.5277063138037416,-1.2008188664451451,-12.401478953125,-44.183206,-0.610687,8.677088537470764,0.01382169958422664,1.9641343174603176,0.0032011935483871406,44.183206,0.610687,2.6344813102470312,-2.1589135323765385,4.773514089135599,53.146920191257315,6.245720926547551,96.05740151377195,21.652991924568457,15.379713990338281,4.395009635794556,-0.11277076868460924,96.05740151377195,6.245720926547551,0.974751035810211,0.7481402877509004,1.2075939747038322,0.10370694271794711,1.6141277170544661,0.09109406446170797,0.0010393509263672803,1.2075939747038322,0.7481402877509004,79.885257640625,9.328244,131.358778,30.70200253085204,14.081833408302785,6.020840888888888,0.0662398548387097,131.358778,9.328244,2.703414397266209,-0.661426000829324,-0.6601962163840129,1.466701578125,1.037354,1.920165,0.17728240908078227,1.851021926941044,0.13973758730158728,-0.0011064999999999994,1.920165,1.037354,2.4047293848643023,-0.16977369421716784,-0.2724367773745908
-0.546546953125,-0.860596,-0.127197,0.21123640632701104,0.14780105880110994,0.03761704761904763,5.512903225806369e-05,0.860596,0.127197,2.583120035919274,0.6783473442823669,-0.9128083422158006,-0.015632609375,-0.208008,0.195068,0.13713485709765477,-0.9377908541979154,0.030839301587301585,-0.0014805806451612914,0.208008,0.004883,2.5959052641218925,0.009513047061421863,-1.550407906106267,0.75516896875,0.49707,1.153809,0.16293255756225264,2.3212203512583742,0.12707715873015876,0.000748177419354838,1.153809,0.49707,2.5973792922511936,0.5320901488525888,-0.5445440268813386,-31.036855921875,-81.419847,5.755725,19.05468765850319,-0.07069191618598841,3.602568746031747,-0.050110806451613074,81.419847,0.938931,2.5679797581819614,-0.7092116362597015,0.4811136959786424,33.861760484375,-39.183206,78.671756,35.64252150703129,-2.0077927263021818,5.31855080952381,0.033612419354838725,78.671756,0.21374,2.6611188204115273,-0.47570492260879294,-1.0729449532964292,-13.027791,-40.977099,8.10687,13.850154823134615,-0.19783904175354142,2.30182961904762,-0.04186161290322582,40.977099,0.061069,2.621195976036322,-0.1610719692272804,-1.2507620482379425,60.46327865087095,18.45717686373696,91.42478607961009,20.67059875300748,4.953346156596325,4.163864924152988,-0.022918653986961187,91.42478607961009,18.45717686373696,0.9693537168378811,0.6022770959027083,1.3235562087712784,0.13582232814474118,2.197586821374136,0.11436996921383215,0.0017340460760059558,1.3235562087712784,0.6022770959027083,88.54210390625,26.496183,141.610687,30.809714949037,5.3445693290992144,6.904034952380951,-0.05712880645161321,141.610687,26.496183,2.5594701116163225,-0.5492752172894668,-0.8738896441387349,1.426014,0.862793,2.0192870000000003,0.2076236018292229,2.34040725875152,0.14503125396825398,0.0008111774193548339,2.0192870000000003,0.862793,2.8663797525593444,-0.19937427270555663,1.3120184119651226
-0.699764296875,-1.030273,-0.311768,0.1760178907048381,0.30260717305024976,0.04010499999999999,-0.00010237096774193534,1.030273,0.311768,2.6354688418662593,0.5546681867541264,-0.43685567765239997,-0.105236078125,-0.322266,0.255859,0.16842603699144798,-0.7939373064487101,0.03309068253968254,-0.001035645161290322,0.322266,0.0,2.551142703513253,0.5777413885977316,-1.0704882547311394,0.68640521875,0.344971,1.224854,0.17748124608331078,3.5505999054993027,0.13290163492063492,-0.003091129032258066,1.224854,0.344971,2.685121344441212,0.6418640271671417,0.5549097187129854,-42.5683444375,-94.29771,-8.145038,20.6566641939338,0.08637577731208955,4.614927904761904,0.012312241935483977,94.29771,8.145038,2.5358722478758513,-0.7137472956699699,-0.18112876976587744,44.3549618125,-18.007634,79.351145,29.143703348924344,-4.406528086921358,5.95056338095238,-0.0072642096774193,79.351145,0.221374,2.624356488681372,-0.46214159461958737,-0.9882370337301465,-26.500357828125,-43.763359,10.427481,11.885286317638442,-0.23826966755454032,2.030534333333333,-0.016621516129032305,43.763359,0.007634,2.468510106633917,1.3915551645917197,2.0632611607675404,74.39469853133826,35.64548633562377,103.01235732388014,18.64739448122275,2.889913083355256,5.299763328343819,-0.04297848291141056,103.01235732388014,35.64548633562377,1.023064380508077,0.626849120008954,1.298867027734941,0.12205979241026851,2.072056873456866,0.10339663181848834,-0.002056801722886332,1.298867027734941,0.626849120008954,116.027910234375,50.526717000000005,172.396947,30.952294316049198,3.4119958159957235,8.256997523809524,-0.011573483870967773,172.396947,50.526717000000005,2.6878253436872925,-0.011641093314079524,-0.7901607607442585,1.56464015625,0.964112,1.906494,0.1837326886034043,1.9774611248485652,0.14044280952380953,-0.001527822580645164,1.906494,0.964112,2.506695962778969,-0.9257721629785597,1.2924686145992217
-0.502582609375,-0.876709,-0.08667,0.2624313244421558,0.09885834410277526,0.017957888888888888,-0.00016538709677419352,0.876709,0.08667,2.6269857248097304,0.3066932714048115,-1.5017715090969403,0.06286998437500001,-0.300781,0.321533,0.17715134725116966,-1.0689937196830916,0.02634390476190476,-0.00038195161290322617,0.321533,0.000977,2.5974031941648583,-0.6506108961380824,-0.4652275584470722,0.7853316875,0.438965,1.220215,0.21364009993555105,2.77975465014295,0.03306363492063491,-0.001563290322580649,1.220215,0.438965,2.5834827072009685,-0.07970485436941042,-1.2125664680694717,-10.6416985,-22.045802,8.740458,8.18513520462928,-0.3964681348403656,1.3941597460317463,-0.054789451612903196,22.045802,1.549618,2.5821703104379847,0.7507030783797619,-0.32517844149716346,26.850310109375002,-122.458015,78.450382,49.51464939313352,-0.6406308480502481,4.019629206349205,-0.28773700000000013,122.458015,2.618321,2.555327130654547,-1.363437764366166,1.0044882494467062,-32.61498096875,-83.442748,2.687023,28.057483460329788,-0.03220199555268722,2.999636476190476,-0.023270112903225875,83.442748,0.259542,2.622099404107388,-0.5995863366305763,-1.0629212611051093,69.58564353365345,40.14560791928722,124.33860835778657,17.746702561253798,3.097190821167024,2.6479644250323076,-0.29921379948602256,124.33860835778657,40.14560791928722,1.0000017648799333,0.8580447341689127,1.5029382817737393,0.13102585539728492,1.7515849954250455,0.02747898691192642,-0.0008399930601724185,1.5029382817737393,0.8580447341689127,95.233420828125,58.687022999999996,152.625953,24.94232244788829,2.600676353953071,3.768084349206348,-0.4229253709677422,152.625953,58.687022999999996,2.5718838881143213,0.1724595489216312,-1.149746425485578,1.442886375,1.051513,2.340821,0.26718537715669427,2.2261455635831418,0.043689650793650815,-0.0005040483870967837,2.340821,1.051513,2.5117412211215315,1.273829479289501,2.626455737221315
-0.62974165625,-1.087891,-0.266357,0.26364680272097185,0.24483794791941474,0.037574507936507934,-0.00016143548387096847,1.087891,0.266357,2.662661565762528,-0.11620125993544848,-1.5139574858119496,0.02357865625,-0.245361,0.375244,0.12807394104166334,-1.5293547059231094,0.03897725396825397,-0.00018903225806451727,0.375244,0.000977,2.459180045420881,0.48348720450520893,-0.23378570488216477,0.7417564062499999,0.426514,1.111816,0.15436698881198652,2.6067514782633157,0.05791950793650793,-0.0006890967741935482,1.111816,0.426514,2.557654113748823,-0.1615294905560717,-0.514529276336011,-16.605558265625,-62.671756,7.755725,14.708622475059347,-0.12375151894579114,4.942687523809523,-0.03435114516129032,62.671756,0.358779,2.6454155424019024,-0.9902351851726837,1.5976717257792137,13.405176468750001,-99.473282,84.267176,49.99171588004778,-0.8471337660297567,6.695504777777777,-0.15981285483870955,99.473282,0.923664,2.644105175483132,-0.7369277776590077,-0.4494154153561212,-42.866173625,-73.900763,2.671756,18.743919853788785,-0.036153293843529055,2.6614564444444446,-0.03201182258064519,73.900763,0.183206,2.5318499160872032,0.3846269315653832,-0.45814083156826113,70.79649692059672,48.84436504030836,118.44420638670374,17.44981876424193,2.4249308244453327,4.765012389702131,-0.20643725122483586,118.44420638670374,48.84436504030836,1.0191286192089952,0.8384327667320738,1.3718952597796963,0.1303940943396039,1.6362615038613986,0.051843750222406754,-0.0010787889088141125,1.3718952597796963,0.8384327667320738,104.132872109375,52.351144999999995,184.87023,31.592470313314088,3.531350269416266,9.078274650793652,-0.21263233870967732,184.87023,52.351144999999995,2.5694063565535856,0.44194389200526674,-0.25749463155541985,1.4760933125,1.123536,2.143066,0.24604723748976576,1.9074297574799561,0.08748755555555557,-0.0021185322580645188,2.143066,1.123536,2.5341634761230454,0.49863567380724494,-0.349504452967373
-0.579887390625,-1.270752,-0.214844,0.3521991679971612,0.16906839414771724,0.03584603174603175,-0.0013191451612903225,1.270752,0.214844,2.3952672774079597,-0.561409346480194,-1.2263486742605243,-0.03438940625,-0.373779,0.369141,0.1568333183863885,-0.9875915982438821,0.035505015873015876,8.661290322580661e-05,0.373779,0.002197,2.8942034227732525,0.04816526695663606,0.21829697223083322,0.765975921875,0.373047,1.673584,0.21152719706423315,4.486255083139658,0.07562158730158729,-0.004083451612903226,1.673584,0.373047,2.7600652239137133,1.272865699822982,4.729055072379328,-31.748210812499998,-177.282443,-0.274809,34.61487859934396,0.001550119658493199,7.36459473015873,-0.1334646612903225,177.282443,0.274809,2.4986737246449553,-2.570836331325922,7.119896414323092,24.112833984375,-250.137405,127.465649,96.90711842181103,-0.5095825192557666,12.731491619047619,-0.8282442741935486,250.137405,0.618321,2.478933402513152,-1.4433307084321076,1.280805391642482,-16.8053434375,-45.206107,24.801527,17.045554360078473,-0.5486322235179419,2.5853629206349207,-0.13728146774193548,45.206107,1.664122,2.630826952246091,0.4053759896484524,-0.14857423225340272,92.87317111341166,22.891399082195257,301.4025705402817,63.39480418160007,13.166629503860696,12.670189035154074,-0.5315217069090595,301.4025705402817,22.891399082195257,1.0312510258718595,0.7733158615067973,1.887883746809109,0.22774090423860202,2.441284138580306,0.05969149380890621,-0.003940610421618053,1.887883746809109,0.7733158615067973,131.910663046875,32.954199,420.419848,87.86152080598607,12.757701924419402,17.868653841269836,-0.8180251129032253,420.419848,32.954199,2.1225896694478434,1.2877220775338947,1.6008672838251456,1.46183390625,0.996337,2.7851559999999997,0.411760647900784,2.7953955338404572,0.08563526984126983,-0.004906435483870962,2.7851559999999997,0.996337,2.206271076405612,1.019107478750446,0.42754434315704337
-0.890705140625,-1.255127,-0.576416,0.13049392560281833,0.45924914371215025,0.04496058730158729,-0.004083451612903226,1.255127,0.576416,3.136267505943622,-0.19650309806915636,1.3395854681443495,0.056781796875,-0.11499,0.241943,0.07253123217439411,-2.1040351334898686,0.022255507936507934,0.00022445161290322567,0.241943,0.002441,2.6780399431060595,-0.1535274614305255,0.019851637862070337,0.463008921875,0.280518,0.923828,0.1656201579635845,3.2932931220099957,0.03941514285714285,-0.001236451612903225,0.923828,0.280518,2.2646522136549434,1.1247067506493473,0.5299593681459203,4.614742328125,-24.832061,17.59542,9.563315665310121,-0.7085767065407902,2.5368957142857145,0.0055405161290322654,24.832061,0.290076,2.6264389840074167,-1.2934134673734408,1.2224559061484275,36.823831078125,-52.480916,158.374046,63.72808380996254,-3.017745460083052,4.579183317460318,-0.09911351612903237,158.374046,1.038168,2.5836687044672786,0.24795592654555462,-1.1631105876717056,-43.036975203125,-78.694656,35.381679,27.78624340003314,-0.4496071372368665,2.868896142857144,-0.06944103225806465,78.694656,2.48855,2.8464298320511605,1.7287741685353049,1.9910696576653866,82.66795744618044,23.305853472013656,178.13109090203406,35.53965147339538,7.643191059960067,3.6905379105990095,0.010459846381435042,178.13109090203406,23.305853472013656,1.0165740821815337,0.6570979958004742,1.469568313486651,0.1640033488105839,2.2364522839495633,0.05219882044378983,-0.003752263421803262,1.469568313486651,0.6570979958004742,116.960758546875,33.167939000000004,260.870229,50.32893907826792,7.865132319496848,6.860535555555556,-0.061807419354838224,260.870229,33.167939000000004,2.443112702980093,1.078295108365706,1.0431133671616974,1.429836359375,0.896973,2.2448740000000003,0.2592067833606412,2.502721932544235,0.07862107936507935,-0.005134838709677419,2.2448740000000003,0.896973,2.3977260108559726,0.7549784661871252,0.6625132009264711
-1.21786121875,-1.604004,-0.534668,0.2999783692670359,0.33333333333333337,0.027626650793650794,-0.001338822580645162,1.604004,0.534668,2.2292283679345277,1.5002650004971416,0.4623946630738609,-0.23270440625,-0.773193,0.216309,0.22030858690847735,-0.27976068070973226,0.029312349206349203,-0.008911129032258065,0.773193,0.002441,1.4182102933016412,0.21572104979583165,0.5461648850991447,0.143684140625,-0.053223,0.95752,0.31855623317054294,-17.99071829847998,0.031385619047619044,-0.0011498387096774215,0.95752,0.024658,1.2157880263366125,1.1554357891047011,-0.46846236139668607,35.607466890625,-17.267176,42.396947,14.180233479688106,-2.4553492128649177,1.862110761904762,0.06426987096774192,42.396947,4.267176,1.8844054399792851,-2.5354488624487748,5.352772697247831,-24.04293903125,-81.961832,114.572519,64.3986031040004,-1.3978765018331947,4.393432714285715,-0.24390543548387078,114.572519,6.931298,2.1118881334919193,1.5656499941758535,0.4460976358588775,-100.507156734375,-133.007634,-4.977099,52.179093840903995,0.037419649160889516,4.202835365079366,-0.10625461290322571,133.007634,4.977099,1.3056819024430966,1.1037000740688712,-0.7319505630063072,134.2281603177613,19.26057562575898,150.18261146886772,30.08353252411549,7.797410336377194,3.0669437930858634,-0.18375933073477807,150.18261146886772,19.26057562575898,1.3170195721969709,0.7729255909089826,1.937004846319699,0.24625256686406635,2.506068978828513,0.02769211131252698,-4.186537966904824e-05,1.937004846319699,0.7729255909089826,201.8135741875,29.175572999999996,230.778627,50.55801251340205,7.909994672598205,5.167454301587304,-0.3592711129032257,230.778627,29.175572999999996,1.3813496096414137,-1.7108704947511146,2.0090410329063175,1.722202859375,1.2150880000000002,3.1396479999999998,0.3625719218696472,2.5838852823828393,0.0462084603174603,-0.0038629516129032333,3.1396479999999998,1.2150880000000002,1.295259375198805,2.439911470641797,6.080291800039387
-0.750980328125,-1.355469,-0.36377,0.2725591038247443,0.2683720542483819,0.043139222222222225,-0.00024412903225806514,1.355469,0.36377,2.4787358386074807,-0.9683669236754858,-0.24907284969932642,-0.13222509375,-0.567383,0.760498,0.30136641156639177,-1.3403609202249627,0.06620471428571428,0.00019295161290322483,0.760498,0.004883,2.7052053959601463,1.0798552852750114,1.236197112696602,0.64241415625,0.083252,0.915527,0.20770985793452737,10.997057127756689,0.052796349206349194,-0.0011852741935483874,0.915527,0.083252,2.6888909026333434,-1.1845128239475968,0.6146644856091017,-11.21529103125,-116.656489,24.374046,37.79030566312822,-0.20893862149408596,5.9378408095238076,-0.15365672580645154,116.656489,0.053435,2.521408177822072,-1.6676676207198298,1.5872993233215338,23.887166046875,-30.221374,85.526718,39.459585402834364,-2.8300075966102667,3.63625353968254,0.02191577419354836,85.526718,0.480916,2.409404998722945,0.41367227873683676,-1.4842601426301085,29.249165046875,-85.78626,180.145038,80.45235349334591,-2.0999287997868192,8.607536666666666,-0.7303619677419355,180.145038,7.129771,2.6223924727583596,0.30689338368603064,-0.8559393062654475,90.95519907365983,25.320491207003272,207.2969668056175,51.284601095689894,8.186925171036265,7.309670501322239,-0.4924370222963242,207.2969668056175,25.320491207003272,1.0850873587267134,0.8311479737092548,1.425557306366882,0.14859649155913213,1.715166674839971,0.04724773760041131,0.0006568043733458203,1.425557306366882,0.8311479737092548,127.4155535,29.519084,295.770993,70.6400755251009,10.019653489247837,11.434266444444441,-0.9101206612903228,295.770993,29.519084,2.543402769175535,0.6171310617515255,-0.2588240248773128,1.660232609375,1.178223,2.074463,0.22822990338222746,1.760670942597454,0.08994444444444445,0.0016302258064516111,2.074463,1.178223,2.6772524150759383,0.05551490699318634,-0.8318089394917005
