AccX_mean,AccX_min,AccX_max,AccX_std,AccX_max_to_min,AccX_mean_abs_change,AccX_mean_change_of_abs_change,AccX_abs_max,AccX_abs_min,AccX_entropy,AccX_skew,AccX_kurtosis,AccY_mean,AccY_min,AccY_max,AccY_std,AccY_max_to_min,AccY_mean_abs_change,AccY_mean_change_of_abs_change,AccY_abs_max,AccY_abs_min,AccY_entropy,AccY_skew,AccY_kurtosis,AccZ_mean,AccZ_min,AccZ_max,AccZ_std,AccZ_max_to_min,AccZ_mean_abs_change,AccZ_mean_change_of_abs_change,AccZ_abs_max,AccZ_abs_min,AccZ_entropy,AccZ_skew,AccZ_kurtosis,GyroX_mean,GyroX_min,GyroX_max,GyroX_std,GyroX_max_to_min,GyroX_mean_abs_change,GyroX_mean_change_of_abs_change,GyroX_abs_max,GyroX_abs_min,GyroX_entropy,GyroX_skew,GyroX_kurtosis,GyroY_mean,GyroY_min,GyroY_max,GyroY_std,GyroY_max_to_min,GyroY_mean_abs_change,GyroY_mean_change_of_abs_change,GyroY_abs_max,GyroY_abs_min,GyroY_entropy,GyroY_skew,GyroY_kurtosis,GyroZ_mean,GyroZ_min,GyroZ_max,GyroZ_std,GyroZ_max_to_min,GyroZ_mean_abs_change,GyroZ_mean_change_of_abs_change,GyroZ_abs_max,GyroZ_abs_min,GyroZ_entropy,GyroZ_skew,GyroZ_kurtosis,total_angular_velocity_mean,total_angular_velocity_min,total_angular_velocity_max,total_angular_velocity_std,total_angular_velocity_max_to_min,total_angular_velocity_mean_abs_change,total_angular_velocity_mean_change_of_abs_change,total_angular_velocity_abs_max,total_angular_velocity_abs_min,total_linear_acceleration_mean,total_linear_acceleration_min,total_linear_acceleration_max,total_linear_acceleration_std,total_linear_acceleration_max_to_min,total_linear_acceleration_mean_abs_change,total_linear_acceleration_mean_change_of_abs_change,total_linear_acceleration_abs_max,total_linear_acceleration_abs_min,L1_norm_gyro_mean,L1_norm_gyro_min,L1_norm_gyro_max,L1_norm_gyro_std,L1_norm_gyro_max_to_min,L1_norm_gyro_mean_abs_change,L1_norm_gyro_mean_change_of_abs_change,L1_norm_gyro_abs_max,L1_norm_gyro_abs_min,L1_norm_gyro_entropy,L1_norm_gyro_skew,L1_norm_gyro_kurtosis,L1_norm_acceleration_mean,L1_norm_acceleration_min,L1_norm_acceleration_max,L1_norm_acceleration_std,L1_norm_acceleration_max_to_min,L1_norm_acceleration_mean_abs_change,L1_norm_acceleration_mean_change_of_abs_change,L1_norm_acceleration_abs_max,L1_norm_acceleration_abs_min,L1_norm_acceleration_entropy,L1_norm_acceleration_skew,L1_norm_acceleration_kurtosis
0.004127969218845769,-0.013353609265366082,0.017911791714242845,0.019533621904708504,-0.010052939574102087,0.021394197220328103,0.003578236887000733,0.014949509643591903,0.0023623787138215874,0.07025259206587162,0.013599569332362694,-0.014742025928761745,-0.07752653644373989,-0.059317587964211264,-0.06934274392781314,0.033050394079869,0.0735814032326068,0.02789399015367119,-0.007930859463028819,0.059317587964211264,0.07549890465461764,0.06779349102441452,0.0622296326942635,-0.013486773288053169,-0.12293112368080887,-0.10180646959008184,0.0019166892796046605,0.07458765269514064,-2.8047786061211562e-05,0.0362235799064093,0.012272654542417907,0.07343770594106452,0.014026871150126272,0.0676379533097621,-0.044389483703371514,-0.013710200612914296,-0.12786569835874792,-0.10664303664359699,0.053904086619368456,0.10574005095231817,-0.005708370628588232,0.051995803344736455,0.0006378985357345947,0.09167184964427352,0.03778991303968055,0.05872432045142965,0.03783219764589817,-0.09647942485040717,0.03312739757092543,-0.03995165866787314,0.03378932461817974,0.0472649954713511,-0.013354658908995336,0.024613097762687396,0.026896627580176108,0.03507245034238681,0.012740257191588967,0.06740662086401604,-0.07907993512056832,-0.020129082904538124,-0.015627505361969534,-0.023022085503016737,0.03436591886829837,0.024482876965336117,-0.0003983895461202869,0.01701909064818689,-0.003610160722369161,0.02700082324297943,0.008570812100949494,0.06339102769067309,0.1129894525078626,0.009292508812445631,0.086516179406833,0.06817276281572687,0.06918014149977554,0.07702528197817632,0.01760077180109837,0.03914760662338984,0.014353747299220421,0.06918014149977554,0.06817276281572687,0.07672297366837451,0.09496936456342761,0.050502979841722175,0.017149173165140703,0.004502396352195868,0.015686366767754267,-0.00959019077974257,0.050502979841722175,0.09496936456342761,0.07866452511116231,0.06395286606292422,0.059129678581523785,0.0619625626464949,0.016421696767282407,0.0371167303988154,0.046152157832381746,0.059129678581523785,0.06395286606292422,0.06962486211900874,-0.03683428755110261,-0.0662018512325195,0.07291869059699066,0.08479531659836238,0.04767692844065477,0.029838918793705094,0.005309005568719344,0.018507606561355198,-0.010826871995330927,0.04767692844065477,0.08479531659836238,0.06990054838561793,-0.009557569547892674,-0.00955544643065014
-0.006500914981492293,-0.01686510342566833,0.013605436994151551,0.01785838433729218,-0.006046112066098344,0.019693130883240408,-0.010978878193880671,0.012994491633181584,0.0023623787138215874,0.07103723811052025,0.00981802470705339,-0.01348047889732123,-0.07397869445122726,-0.05780339263517139,-0.08075884462132103,0.0232993041528293,0.08794016858148683,0.02599127633476028,-0.020642395797976196,0.05780339263517139,0.08792851226697174,0.0766904603992576,0.018159674776369792,-0.022163002702972917,-0.11197132304338728,-0.0879390965279324,0.007705455685586498,0.07094404833446859,-0.0001305384878181125,0.030825630317661157,-0.022375165121192184,0.06343452962806934,0.0038248772392736035,0.06911230422589253,-0.024431444462162437,-0.01827758062970531,-0.12156324493598886,-0.08897478782290466,0.041366307512895835,0.08076760488083655,-0.005250525469696596,0.04563289607031638,-0.020818803909086036,0.0764839752143553,0.1072963428731064,0.06524305336230174,0.05983185478968539,-0.07906957295162638,-0.046069665708932374,-0.032511905213466946,0.016237330954231778,0.02810792069010183,-0.00788606452429958,0.019577659578175928,0.011327028652365194,0.028541297637102826,0.01882081897026357,0.07523605855779181,-0.01768833543863771,-0.027894965828653293,0.015448610452454919,-0.0042435846821021325,0.03422437861498438,0.013739382860632884,-0.00215242156504619,0.014929744055968183,-0.05330994856712761,0.026889617039643397,0.000630207743388431,0.06968990244720315,0.11420280399347757,0.027276357637098497,0.06927496390168701,0.040072379375713715,0.057767034964881475,0.06439304125459139,0.025003229529128788,0.035157365843197765,0.01689856033169365,0.057767034964881475,0.040072379375713715,0.07233865043642757,0.08867898505129673,0.04952187905729288,0.02126085924212752,0.004728100003522629,0.021371415629654604,-0.0274681504338346,0.04952187905729288,0.08867898505129673,0.05946854872569464,0.0459596130705059,0.045621874617840695,0.04884615527512524,0.01763068902622281,0.028424933432419194,0.026714904387414615,0.045621874617840695,0.0459596130705059,0.06832212647949747,-0.033097856431021186,-0.06748854571059944,0.06915766497270491,0.0746858858327868,0.049426487400625184,0.03958193140196925,0.006248819636138244,0.0261682098877079,-0.03444401913174513,0.049426487400625184,0.0746858858327868,0.07602917045734826,-0.010265681199088883,-0.019648893676484546
-0.0031323091418296533,-0.0239134977970619,0.005939034296411999,0.012330248670799671,-0.0018613388188533236,0.01564951906001045,0.03911743754555328,0.018425250008907844,0.0031530655784203425,0.06759353133840484,-0.17782001103100184,0.15757563467875663,-0.0708823912154661,-0.05783657564091721,-0.09053011935210657,0.01358721045940702,0.09852377578297519,0.017468744151827913,-0.004780231868019804,0.05783657564091721,0.09856726835688982,0.06662846899901934,-0.16900128726028615,0.11304381011078149,-0.06195292763671543,-0.0868343024490002,0.018043920645095773,0.04367016551286401,-0.00030957211785987186,0.03473530441890536,0.020803956370114257,0.06263759066121653,0.03485391093775946,0.07422493645391655,-0.024743843029956476,0.02870589002166936,-0.10805863959084093,-0.07277692263491431,0.054853396367985294,0.06408927753606856,-0.008512023420970592,0.035634658848105745,0.0163534913684428,0.06256006317278255,0.01602697244272785,0.06656116560770199,0.11260244827064952,-0.013927733008363872,-0.015994200402146993,-0.011404845220606249,0.005685298498970046,0.010161791620487668,-0.007871399948097716,0.012482022214967253,0.021070713759936712,0.010011996522787031,0.004053707852449738,0.07208021472741039,-0.004257306796842245,-0.039967652977949096,-0.008404884113238304,-0.012993333148986798,0.005538933012983785,0.010231866685291266,-0.00011377063312681015,0.008310559952612578,0.0332134376585041,0.011372669857764384,0.002646862615381535,0.07066479841972047,-0.01416316842315853,-0.05581976556787637,0.05602219738416578,0.01872704202031233,0.04673096888445959,0.05145649745739497,0.04328094768742244,0.028209240992179776,0.006072818172050755,0.04673096888445959,0.01872704202031233,0.06453195135927728,0.09020070905996974,0.05957061277898072,0.023472034198209694,0.005591552004243997,0.021203499853375996,0.01043645055470593,0.05957061277898072,0.09020070905996974,0.04459405476958536,0.019633739359361323,0.03350210103584291,0.03341514273911892,0.030306902033604657,0.020401200191165786,0.010441867729909972,0.03350210103584291,0.019633739359361323,0.0676618923404632,-0.08979555432942242,0.0028435346689303686,0.05909681669479709,0.0759988088963749,0.05551685863894065,0.03168288081281914,0.0068975503080515276,0.024323750049084023,-0.018279718498681197,0.05551685863894065,0.0759988088963749,0.07558734874907716,0.14617574554508198,0.12922545250469974
0.028320895256387948,-0.037472245174997657,0.044720456261626386,0.036184133378986544,-0.00894435889163644,0.03695737823596385,-0.02626782965911779,0.03732451241141925,0.031517746610903855,0.06514743537467244,-0.017852613849991154,0.02605767792025024,-0.07668558265834108,-0.07271292907495755,-0.09710892786300847,0.024285306780582615,0.08406167618443466,0.03001557995266256,-0.0622524852430758,0.07271292907495755,0.10573013513099143,0.07556808376792491,-0.20716841197443292,0.14505578045383077,-0.05487872552741857,-0.15053378095236877,0.026272124188818552,0.061187956745029824,-0.0002600060587512703,0.06971771982071209,-0.23333032336785128,0.10858696489808994,0.023802331185866502,0.08675206033454745,-0.18567884065425622,0.1741008426410565,0.086269202080104,0.010964053957420101,0.06011641058984341,0.024993121235668946,0.061921982489806335,0.01710895933999057,-0.025400104907893573,0.04967251941676027,0.3912267444068898,0.06476522125229368,0.0923455533374574,-0.03655916249632333,-0.001967613831431675,-0.07371740266586196,0.07059493352669237,0.07018526421798002,-0.015121386435899652,0.06932925691814501,-0.09114403256063137,0.06471445818712025,0.03300883438504241,0.07745227888596307,-0.04415245815879344,0.015549450294674144,-0.03839278081378669,-0.03057753029879465,0.013417994752966692,0.02023080690354653,-0.00011711427883647582,0.02548961881435828,-0.030926993075731,0.026763583536769088,0.004789565640618909,0.07121371415488988,0.057827639781964604,-0.020467556107357877,0.045912997864797474,0.0488660432100159,0.05468359814824736,0.06089353873740637,0.019409353488214636,0.04626285698555494,-0.013407944627691955,0.05468359814824736,0.0488660432100159,0.07014487724360557,0.09345513817776228,0.0839920728910163,0.0475192808854974,0.007609311587608798,0.04521569569848938,-0.21011739413862943,0.0839920728910163,0.09345513817776228,0.04850205124009605,0.0397361883783135,0.05567104809184496,0.061584566819373146,0.02488374339811285,0.053486329024926185,-0.07917287239984018,0.05567104809184496,0.0397361883783135,0.07145453968252247,0.06889888847508369,-0.03747626492568334,0.06587633241112308,0.08884663302658469,0.08562609235448074,0.05724919754457586,0.009100011249042875,0.05099057619516687,-0.20293758840805048,0.08562609235448074,0.08884663302658469,0.07296990555981321,0.20470487390402337,0.19464960915356594
0.05607977684206456,-0.005536209431038586,0.029719013294702456,0.02610014154719044,-0.040232274102377,0.013732362642755349,-0.006506248638699166,0.024804033171841225,0.015758873305451927,0.07227729721344561,0.013325585754436804,-0.02618529278052337,-0.07851341778837181,-0.07630493285927942,-0.07664712645250643,0.04926837453238035,0.0632257207448039,0.028701706484596683,-0.0161879067829996,0.07630493285927942,0.08345176098183142,0.06911914604468834,-0.06457315323604684,-0.011938586005056602,-0.11375259529307603,-0.08784895449306884,-0.002787882842936758,0.06377751551705728,4.72781170637663e-05,0.025851040565966717,0.012646605903384003,0.06336950601733131,0.06120499964674683,0.06779515784566678,-0.03389673435505269,-0.01701006499020714,-0.10067274607299366,-0.10561234946133242,0.07279683146278068,0.11925814799829335,-0.0077843211891588165,0.04703018492237568,-0.022848495571287875,0.09078585649013439,0.0231125866627546,0.058619950670803285,0.026630232619570114,-0.09903766172509447,-0.04925909775928702,-0.05326270914336633,0.036473221960296176,0.07006842723454668,-0.010812820180630785,0.02316315230802522,0.027485305635830484,0.04675785145896559,0.07759973455560379,0.06680719586815984,0.0011109123117301102,-0.07076846719847169,-0.038512987147105285,-0.06051979344289857,0.05743694307499114,0.07292688453658784,-0.0002532902756069174,0.033369043561166135,-0.01817111707964227,0.052971137028057315,0.01814995989360377,0.06481587587066091,0.05409806209522849,-0.05030677285320991,0.09832276103042252,0.040075672863466826,0.0780519493035304,0.0845059964890291,0.03378034588438517,0.043412312736985426,-0.013989002786729548,0.0780519493035304,0.040075672863466826,0.07616728795546196,0.0890824357846682,0.06414219432842508,0.050166372837731885,0.0060962389604980495,0.02077826630995365,-0.012420961328429682,0.06414219432842508,0.0890824357846682,0.10393408079349531,0.034853792253346255,0.08377710295994306,0.08813012815326109,0.04269212992577865,0.047680383048182604,-0.01530118405194156,0.08377710295994306,0.034853792253346255,0.07065099362035901,-0.053199035179111745,-0.023880731212463972,0.07480588366283179,0.07914974742493351,0.0574407947823237,0.05750020796805315,0.0068524785624563215,0.019418196922911028,-0.0022160734738872192,0.0574407947823237,0.07914974742493351,0.07131928621430025,0.004891175926622372,-0.026118531399081327
-0.027766314217234096,-0.05902770451431773,0.033575862620339555,0.029152241697817584,-0.004263084987550158,0.056487713456087885,0.02163231071297137,0.045480599381905094,0.0,0.07098734139373887,-0.03664796802991711,0.1200389619076564,-0.07181306611543554,-0.06545160012321166,-0.07103581600532476,0.03305552991421502,0.06831367214416405,0.04626017728946138,0.0004347688079553303,0.06545160012321166,0.07734228552063172,0.07061265593973334,-0.034001131534695285,-0.018253592022249524,-0.0863641194188249,-0.18471728455646053,0.007027834258436235,0.06617676369047205,-5.668083309246482e-05,0.09993710715443122,0.12190354591255072,0.133245103971377,0.003400084318753458,0.05953546010601588,-0.15704536471788372,0.17137449344213052,-0.0730200603872517,-0.0962132377528039,0.055399372447701184,0.08940652969489855,-0.006502689091395794,0.08209209558495466,-0.005393159431287081,0.08270624827142288,0.031041704811017624,0.06887586136413484,-0.010443073668268858,-0.0883458734733333,-0.022280996226848954,-0.06258090668751946,0.0742710298024449,0.05819120581699696,-0.01873983221776264,0.07468170139739536,0.012118705743188829,0.060807139724844035,0.015346206820848831,0.06910324916122189,0.02597367058726535,0.03277439976633416,-0.024925096977305848,-0.03855648727076648,0.012710294722512994,0.02130964091485901,-8.797976481774037e-05,0.042457986531125834,0.11949613389116995,0.033747322228839714,0.006680188870784202,0.0707345369079342,-0.03985891105493439,-0.014683827502618865,0.06877454706154505,0.01908157656479259,0.0623725469725517,0.07717974714320469,0.05669442899314829,0.07118867785636217,0.02621534581415357,0.0623725469725517,0.01908157656479259,0.06792573701218221,0.0710975330616963,0.08992973421487699,0.05187970818927511,0.010709249344013466,0.06726234256301544,-0.01550599033457067,0.08992973421487699,0.0710975330616963,0.06362635960444993,0.02006339115984046,0.056940461320642136,0.06765744436835651,0.05040680414959877,0.07095814722763746,0.04292015672318086,0.056940461320642136,0.02006339115984046,0.07224139489945648,-0.019315583135702925,-0.0667670870570662,0.06488726146347319,0.061594298982813135,0.09245598439746806,0.05947833089182524,0.01417331008118505,0.07489655601982971,0.04869524442319361,0.09245598439746806,0.061594298982813135,0.07026183448739634,0.14574582253648943,0.19212573058143453
-0.032971870170889025,-0.11464648392461806,0.04114757649307226,0.06662060913752606,-0.0026899005723787298,0.08672338097440349,0.004472962662319294,0.08833463623263252,0.0307270597463051,0.06424651612747638,-0.04608301446263663,0.03268370351522699,-0.07515581214174619,-0.07524389153776434,-0.06907674635448847,0.03742012142803626,0.057784472143076755,0.03433789898798469,0.01738274224805586,0.07524389153776434,0.07520929215460315,0.07024474109738488,-0.046690629796497525,0.01797172525762437,-0.040018910902315165,-0.18214675882457282,0.012545552093557968,0.07981717690650732,-0.00010261021088567619,0.07723244232030209,0.013245541115949704,0.13139086510451134,0.0008495858410402905,0.06517714338265053,-0.22139547396991222,0.2224990136961275,-0.09887537607583895,-0.11842974907540765,0.048739446007335936,0.09965510121893137,-0.004647749938733189,0.045292488483465884,-2.6989375288391786e-17,0.10180387292358356,0.0016870520571657303,0.06891384911291956,-0.0371311891047551,-0.08461493439427177,-0.06388352702362693,-0.0592543011121641,0.05200113091743748,0.07846110086516501,-0.013857376355776161,0.06021482854484368,0.032824032940359904,0.05201770346021644,0.089760858112953,0.07100252602898924,0.04019480438381059,-0.04824802015672163,-0.017338675092680486,-0.04522255760613731,0.04818966135853883,0.04595593860518032,-0.00028439593837289984,0.06460387169935038,0.04404388829692516,0.03958193112430399,0.0002520797950720807,0.07544765294448989,0.01946116262471956,-0.032920954862350416,0.08213379334098346,0.04268274998525981,0.08287193323847497,0.09860571580977547,0.03367566950807508,0.05559097872143155,0.029861449152228797,0.08287193323847497,0.04268274998525981,0.07070801041761876,0.06765186959113721,0.0956371557336397,0.06695855831606795,0.011968978889635088,0.05949062820477025,0.020836896422252296,0.0956371557336397,0.06765186959113721,0.08246474850418224,0.048693753604244196,0.0825409859749336,0.09932445663911858,0.030107099715435813,0.057884175476825235,0.04481867436034108,0.0825409859749336,0.048693753604244196,0.06997156384113255,0.04406798429386848,-0.06566991206530928,0.06844601603951464,0.061950608940035,0.10466679530242083,0.0748964598709789,0.01595291774598265,0.07640986413158872,0.019739843603078667,0.10466679530242083,0.061950608940035,0.0778746362748458,0.16876042009649048,0.17376597589116502
0.02665520059669181,-0.10700850120102831,0.04744152427686918,0.06749348985466999,-0.003322714748079141,0.09579407442519731,0.01024704180952496,0.08244960249812168,0.0023623787138215874,0.06275278633463093,-0.12910029629060576,0.09452472497590825,-0.07304828962554885,-0.08173159922731331,0.0002176523905379169,0.05044226461706668,-0.000167619279895594,0.0914002712715209,0.007279373756942404,0.08173159922731331,0.00023697529330795293,0.06128171352344594,0.012128524019964478,0.06361807695770746,-0.0012402506718135551,-0.1837477035298237,0.02367781348206363,0.07632613386440981,-0.00019197378379375474,0.09682282563478008,0.0025444018421176104,0.13254570042063127,0.008076288353659648,0.0740980441700476,-0.22096529829074854,0.22799295458581345,-0.1067374762452937,-0.1250630255958956,0.0441355383863661,0.10510937016124829,-0.003985496865831744,0.10946081021541122,-0.011598215279222572,0.10750593043219793,0.025980570739867023,0.06616799577312706,-0.04105230479875355,-0.08814347117897897,-0.036291902940555856,-0.08435421403636487,0.06738517110068946,0.09208774057897186,-0.01261379172443052,0.09630801996876495,0.02847997378418318,0.07405221914704983,0.029823789052747546,0.07121783336571237,0.002920471133766663,-0.045364623476434864,-0.001678643274055321,-0.04234267924641924,0.01836245969092472,0.028191479019922264,-0.0001157383153700315,0.03518722162778217,-0.0018050803611844826,0.037061261066817806,0.007562476409244714,0.06282281157929978,-0.1261972863227376,0.010425632082689188,0.09041372893903199,0.021673860990223535,0.08306723020470178,0.09048109319897821,0.06647442770885657,0.08038333222407698,0.023011029033425535,0.08306723020470178,0.021673860990223535,0.06869648013055005,0.05877723820387599,0.1078820696814485,0.07124778577836666,0.015539976089412308,0.10302261340191897,0.0010498351097131258,0.1078820696814485,0.05877723820387599,0.08224895106230083,0.02262827301137229,0.07100389366049256,0.07249971831248944,0.05573182663445548,0.07009680277166569,0.026850523364318153,0.07100389366049256,0.02262827301137229,0.07064721704108465,-0.011940835947033395,-0.04448410068644562,0.06534746934412977,0.048408909964282355,0.11855503541586601,0.07945839619165712,0.02312445358366272,0.10576817240530932,0.004985134008784972,0.11855503541586601,0.048408909964282355,0.08308502559185822,0.23154068709469772,0.3002256615586604
0.02365872946688545,-0.01778780499750809,0.017178316762705675,0.024870136571309074,-0.007237872909361102,0.01720111333824445,0.013418554879824225,0.014337338006255425,0.00551544429224193,0.06740073758587095,-0.055130481335441676,-0.009640751026445979,-0.07662856045649631,-0.07150824562897931,-0.06223194027026191,0.05519967395514103,0.054778198345472255,0.032176812992654895,-0.0033677894970368994,0.07150824562897931,0.06775681288048704,0.07241788679224623,0.0028872691238213573,-0.03361674123004364,0.0010875718764858618,-0.03287570522943201,0.027336969188675043,0.041573441838820877,-0.0012387895558773673,0.025915202715913115,-7.479027219336841e-05,0.023714763737169728,0.011901165592933251,0.07233227144043818,-0.01366491183994383,-0.015444146589423743,-0.08938038593826843,-0.1549245891457571,0.07595955870860435,0.14926634507862552,-0.00553713426360042,0.05501623905522662,-0.028415637689821353,0.1331753491776007,0.1191056851729199,0.06545769863941947,-0.03266265855582619,-0.0906213479474561,-0.017275119438250757,-0.03758278207573519,0.03569930746794573,0.04820899192437706,-0.014998884788394192,0.026545001202183113,0.04285190552847209,0.03299287944557669,0.043722237650406504,0.06980905641813212,-0.018216102599251896,-0.054851591955876695,0.040300522948600315,-0.002363194170521581,0.02889303772630453,0.014759596986179064,-0.003263010219125591,0.02078810437723141,0.0049338768619652225,0.02270085684571464,0.00012604815324426962,0.07346489915419421,-0.0574450851436587,-0.025768639503412426,0.10452502694772696,0.09013582888399603,0.10180748325918886,0.11020143927623378,0.019590404612935923,0.040023395710056135,-3.5920358958946255e-05,0.10180748325918886,0.09013582888399603,0.06871926881943333,0.06582349455127874,0.05942555313703518,0.059374332429820265,0.007643680931431569,0.028687762755754364,-0.002521948854229643,0.05942555313703518,0.06582349455127874,0.09127798734150364,0.10324638221733241,0.08396023175555217,0.07797611586048413,0.014443462173256632,0.0348792091403158,0.04086342040055436,0.08396023175555217,0.10324638221733241,0.0698667720657073,0.05039837381497381,-0.029073272307927018,0.06190196659021924,0.07237893634908361,0.04428003332658117,0.038463454493097224,0.005776602992923984,0.02190184670321649,-0.009416455910591672,0.04428003332658117,0.07237893634908361,0.07258267406737004,0.0010122322952403925,-0.02447207619450305
0.03157974209177923,-0.022426928874857886,0.020325339113572923,0.02695550720676772,-0.006792360074482003,0.019217958622940366,0.014882227648533588,0.017279854873510844,0.024424155882789306,0.07307164952840699,-0.08550161415798317,0.010299039232020153,-0.08030828835883307,-0.06488794172683891,-0.07335777173105425,0.040438703469454884,0.07115946241260725,0.02582615988327724,0.0092347208829964,0.06488794172683891,0.07987038152634487,0.0714154484296713,0.03327769739728294,-0.029902412470166253,-0.014845435419452796,-0.04678814930901323,0.024432832043549603,0.052403778025193026,-0.0007779652387457515,0.024629069530052037,0.010401671667548294,0.033750451855533915,0.00467620403490619,0.06814669262462406,-0.037533397187321925,-0.01617367423374026,-0.1301552417244047,-0.132906650173922,0.06396775632619796,0.1324882746496648,-0.005435473471631663,0.05502272278005969,0.1069355848337793,0.11424842010253626,0.06849421185933435,0.062416268302204564,0.012362691521615109,-0.09963987800730953,-0.05073661745145422,-0.05117143511113927,0.031839654278989195,0.05590043017770829,-0.009824916091667772,0.031708056364686675,0.024115616851860363,0.04492198013113541,0.005791032892759486,0.07126698532354728,-0.01590046261702349,-0.0549050931657076,0.03138723753311948,0.0006183268895630057,0.02889303772630453,0.011320931167236158,0.012470954859556056,0.015015581368945579,0.013718604439265567,0.02270085684571464,0.009201019844337925,0.07526028113204156,0.04798109990309405,-0.007311790900016037,0.10074413394371531,0.043113666480971785,0.09158110126690822,0.10463722198244993,0.03684275219030984,0.04661537346356163,0.06943261597563549,0.09158110126690822,0.043113666480971785,0.07281553324460542,0.08486389141139791,0.05412051005476497,0.03746113104572684,0.0053994458609606995,0.020971355305507658,0.0022881630944285676,0.05412051005476497,0.08486389141139791,0.09071793248089607,0.04467065937465187,0.08332760584970221,0.09093768024536603,0.03313134473335624,0.043665034286768226,0.0766641241412251,0.08332760584970221,0.04467065937465187,0.06899629162659734,0.02159544881511289,-0.046045336270378455,0.0667730470623942,0.0842514023040263,0.04102739771546354,0.016117718974144043,0.004598049176380734,0.016031669170945048,-0.0027696793193738765,0.04102739771546354,0.0842514023040263,0.07126755537246471,-0.041095489252141466,0.003972191939774145
0.007465037831069139,-0.15747552141991653,0.12881382466146285,0.08013320271101794,-0.006130587935933416,0.12423560090820993,0.03407552788984112,0.12133423044459755,0.00551544429224193,0.07845318750076892,-0.053306771780248084,0.2253116881497473,-0.07484504739546165,-0.07700123273837421,-0.08279043204633746,0.03644824318896467,0.06767573743865342,0.070521134967586,0.04791223464291238,0.07700123273837421,0.09014046144306014,0.05625996796645447,-0.1140905229380238,0.051796444098676904,-0.050422227670755396,-0.18101933687828248,0.03293208415813249,0.0753222129108666,-0.00027102945805851597,0.10018729224525386,-0.005313481018326943,0.13057760361242204,0.002550498477713167,0.07566519782726272,-0.14418057446770305,0.12235482863871174,-0.0392326960909142,-0.08454945115042495,0.06723377615229616,0.0767625682969822,-0.008980482803133983,0.08534487288508341,0.0748085215972137,0.07267989375875462,0.032897470914038565,0.07378690673682482,-0.018638931076230762,-0.07024870427078966,-0.019310276932838082,-0.11865665651888117,0.072792653924237,0.060307343947965025,-0.009686871759901825,0.08506415343793472,0.045734413115159085,0.10416537966917039,0.0686236183993447,0.07007018482931159,-0.16706447962988633,0.3280196529348067,-0.009904278911213949,-0.07476671952653899,0.025052585280856115,0.037703218233871544,-8.942704065572855e-05,0.05488285861672921,0.07280478178636604,0.06544103870604585,0.001260415486776862,0.060984000916208383,-0.12560042882179803,0.061454834706070216,0.05731389176608253,0.03212090110914315,0.0899733594442321,0.07866851857367296,0.048583341011125894,0.0827583620124461,0.021649046543944093,0.0899733594442321,0.03212090110914315,0.07128656601024749,0.07952515057453906,0.09044616471239596,0.06382774207998813,0.009629326400557647,0.07035765614148619,0.045182889406620026,0.09044616471239596,0.07952515057453906,0.05471389935177738,0.030960895435681934,0.09664395736574675,0.07830984031621739,0.0554413395416134,0.0775029687847149,0.0009944611964948647,0.09664395736574675,0.030960895435681934,0.0554793135312024,0.12730912438735986,0.11166598460483221,0.0667635658991812,0.07168498467948786,0.09917161148761895,0.07708657339639115,0.013062790209121043,0.08242432959628807,0.04778913768726731,0.09917161148761895,0.07168498467948786,0.0634008187050616,0.14680077031085023,0.12076309775256415
-0.0167893084243793,-0.025169417572226207,0.011404915221602481,0.02553579254363827,-0.0033960306513676555,0.014267239348306293,-0.009108481608467776,0.01939293094144699,0.014183954162904201,0.07140219258500012,-0.03468373211311714,-0.01782359789651893,-0.07807537167755252,-0.06240116291151906,-0.07879967590248724,0.03288091254363749,0.07948446836869107,0.019321183400641654,-0.015427395121999105,0.06240116291151906,0.08579541103781467,0.06962141781727246,0.026710534326753143,-0.02505552612706255,-0.0947593504352716,-0.08142264016334959,0.007415057831142466,0.06476829813075237,-0.0001356724325499351,0.030238685900113665,-0.0013471444520075427,0.058733908850167105,0.023377538265346356,0.07458640210076,-0.03209953289102352,-0.018260228362115608,-0.07737156133544186,-0.10240208964430178,0.06141494855417461,0.10801733462234005,-0.00677311185344682,0.04828374686594303,0.005335180395872392,0.08802627213724869,0.01433992038556212,0.06381827414409579,0.00026684155449635424,-0.1022491943414753,0.008518956201229413,-0.02536363520459128,0.035967200621121985,0.041353495209542984,-0.022391502829622514,0.022132713293609645,0.006922073508536522,0.02944704818954949,0.017662627564193577,0.07131545314183248,0.004372867918106118,-0.05639306091122215,0.03229373339021932,-0.007801081414130335,0.04063142369828781,0.028377612227373474,-0.00139005462023631,0.015516946104544805,-0.030325299622002803,0.031923543019246985,0.001260415486776862,0.07515254490930229,0.029227832845664107,-0.055184197020660665,0.07956539941342916,0.01097291749875625,0.06842403464932453,0.07593511234952106,0.10815528003988767,0.041156606864308665,0.007008513152756189,0.06842403464932453,0.01097291749875625,0.07466095348814214,0.10276533891206877,0.052079123340613195,0.01714936723776809,0.004290691190048904,0.013221778819398159,-0.012495558440515588,0.052079123340613195,0.10276533891206877,0.07343219119363006,0.012121360971314873,0.06415738685841925,0.07138080107726086,0.09400864751156902,0.03611550457644289,0.021539180302348884,0.06415738685841925,0.012121360971314873,0.0681042131901846,-1.2250666807353004e-05,-0.04774226190217465,0.07030019512400631,0.09077845066011227,0.047111784819395555,0.028628518535199703,0.004900310168974736,0.01810129451946758,0.0006041399111148324,0.047111784819395555,0.09077845066011227,0.07503148790460287,0.007667475490515127,-0.016181742847678007
0.038281696416280576,-0.017428970776032577,0.056882494411533355,0.03495888418828938,-0.02446017710073744,0.027165672292589874,0.03480703116705698,0.04747517235144036,0.020486858026419995,0.07870136066520657,0.08488291507814077,0.04154958842970785,-0.076580465095459,-0.0740723458274013,-0.07374473132934331,0.04509508382102916,0.06266505494912128,0.028881218608535153,-0.03042002143604645,0.0740723458274013,0.08029169490625422,0.06995378981422222,-0.0579541098052772,-0.009156568493353027,-0.048951828137242547,-0.06378971289687442,0.05424793693713344,0.07508173352648397,-0.0012669364432606309,0.03393029539714839,7.47902721933429e-05,0.04601446447016343,0.037402668460880334,0.06897892990978624,0.029395701206709497,-0.006619773211563723,-0.07299674428542006,-0.09599102574798785,0.07318540950903549,0.10814822256228696,-0.008610271565201435,0.047591046090287095,0.030097379171197803,0.08251523171623298,0.12602258534709143,0.0680377056309778,0.033977991335071143,-0.09399347386561971,-0.10369453981555359,-0.06634242364718437,0.02250306515999213,0.06445848149589667,-0.005355973851097681,0.025002058081095575,0.006516086075051531,0.05824016915799634,0.09005042493007287,0.07004710672634187,-0.022216523356473984,-0.05982398307136581,0.026629195561974475,-0.01844816065772328,0.03688533142171538,0.027590773415592514,-0.000533611590052522,0.027052237160792376,0.07268445255422627,0.02898029055452303,0.004033326255402666,0.07018446620650351,-0.047176108713976,-0.03753831037503604,0.08697418934369303,0.08868274244769461,0.07298979459465815,0.07354266328607838,0.014275265284502146,0.036000905406933056,0.025878887604598146,0.07298979459465815,0.08868274244769461,0.07230290683085215,0.08625606745754705,0.062212657395095294,0.045424403497654864,0.0061065982757091625,0.026573118783404258,-0.017932620362940337,0.062212657395095294,0.08625606745754705,0.084523753099315,0.09480960493353041,0.07439385109035317,0.0809617712140872,0.01393661255661304,0.03457564909856188,0.041677066163810596,0.07439385109035317,0.09480960493353041,0.07181064060771343,0.023761995530538895,-0.07054015628087486,0.07005560873024402,0.08038761338886535,0.05749489825244904,0.0441010642917192,0.0067533141558468734,0.032313651920680544,-0.0005538121069796934,0.05749489825244904,0.08038761338886535,0.07023855108058674,0.025668155315002193,-0.01142770957448147
-0.003029883667361672,-0.023016412243373106,0.02018335433503144,0.026790149002606324,-0.006572164469214293,0.02394605530459193,0.0030089567864700767,0.017734049342808453,0.013393267298305447,0.07552604164523823,-0.000148812158097745,-0.011161867628923659,-0.07581490077741757,-0.0656726541710382,-0.08242764503944175,0.030427162357224875,0.07900213886341051,0.01857803438100496,-0.015101207265059903,0.0656726541710382,0.08974546666650404,0.06694456086743283,-0.06228358344874535,-0.00987126185322666,-0.061325612697983346,-0.06469159503872134,0.012022804235421687,0.05494639768666163,-0.00027687271929108373,0.027448302375328755,-0.0005241449403715368,0.04666503369030368,0.003400084318753458,0.06733696185855055,-0.03261633997077698,-0.014052319903305332,-0.06185948696268806,-0.07281001802670908,0.0556403891126921,0.08543952240854556,-0.008630222534422477,0.03341390933686657,0.021340729180323977,0.06258851243563192,0.1356387776528668,0.05735846388874689,0.032442847310783,-0.09901972111875433,0.010575421976360267,-0.028074888792368732,0.038993406783811004,0.03932202844608968,-0.02193114161809641,0.02942045492947812,-0.006617585592636257,0.031924662159091594,0.009265645042174225,0.07179346781391081,0.013583156535017545,-0.030906221637671854,0.013069235854002638,-0.013798005174155097,0.02914780993504646,0.022296914999421498,-0.0005637859664931877,0.017440470382548572,-0.0037305057188521417,0.022901027817479633,0.004537485845546829,0.07262286131629103,0.03120563449052566,-0.04666044026500494,0.0661146326454025,0.03541704074298223,0.049667726853841694,0.04699409721791743,0.024323337958563722,0.02816980712878715,0.009445255109575109,0.049667726853841694,0.03541704074298223,0.07003539408964064,0.08718127778226518,0.054981543440504314,0.028663677595249855,0.0053395412942428425,0.014914801351797229,-0.01287196217113721,0.054981543440504314,0.08718127778226518,0.060240502535196354,0.03564799373717378,0.04781109187872234,0.04304106731121323,0.023821334720421694,0.029807494748996313,-0.007390673171578612,0.04781109187872234,0.03564799373717378,0.07312885463373886,-0.03837707470837983,-0.011833562721339296,0.06489094590549248,0.0823944881220492,0.04344434772862782,0.032648350299063066,0.004978653475867801,0.021181802841701958,-0.005489030834614695,0.04344434772862782,0.0823944881220492,0.0706565943963937,-0.009367184192185058,-0.02572181820574028
0.07079759179334497,-0.002691256661066374,0.02943504373761949,0.022619407268593208,-0.08197138513500361,0.022507378232249544,-0.01569567528194065,0.024567026975039447,0.004727984720968067,0.0698636522945006,-0.003188555067063068,-0.018559324124145984,-0.07102804980727007,-0.060190712973515026,0.04953399875692237,0.05783326451063731,-0.051799363954137166,0.07799545927412976,-0.009343301834011723,0.060190712973515026,0.005161466424839401,0.07583483527475343,0.3015158427153096,0.3370125738943998,-0.025588410505799995,-0.0581976741828544,0.08057810897670378,0.06640439531148544,-0.0020626887122735427,0.0657373543744923,0.014442798506061538,0.06769604116583391,0.007651495433139501,0.058009016951766884,0.022427398278238378,0.014731158882880678,-0.11048706606643503,-0.07625667376485583,0.03979724099393116,0.0638685851886229,-0.005893836466394834,0.04250547493623113,0.00632102911243233,0.06555130603704548,0.009447478259920138,0.06968138901193838,0.07833827844678597,-0.059554558231446716,-0.09680467494156447,-0.043370798631898556,0.021629930644300053,0.04579034223780955,-0.007874913845474325,0.027778405113231566,-0.025901956772609955,0.03807401825221636,0.0037641789665346175,0.06741459554167196,0.023046640133583384,-0.05972930842054739,-0.015975749763721812,-0.02767224098658492,0.043792484411168564,0.03636715116586935,-0.0004223571871398262,0.04817198361085901,-0.056198070839285796,0.034407144342287824,0.01222601040803581,0.06359992091297928,0.07427950754775835,-0.0341012211153581,0.06464615333215493,0.04179171635625365,0.0558493169399131,0.0622225369907213,0.02317868638193475,0.03697750918529859,0.001300121575520891,0.0558493169399131,0.04179171635625365,0.06845787880907046,0.04869035500596444,0.050765031812158766,0.02850389663248861,0.008827383080760948,0.058515945142400605,-0.009197717491462507,0.050765031812158766,0.04869035500596444,0.06643549930964543,0.03762699064619626,0.05620378553894345,0.0669849869820684,0.02653008277228204,0.04015929502189506,-0.01957285761792154,0.05620378553894345,0.03762699064619626,0.07037017853221623,-0.008847713476549121,-0.07342518422233543,0.065776078621515,0.043326076978143294,0.046817183174830475,0.03624216554978886,0.010203112885505326,0.050753779013391426,-0.0052369792909533865,0.046817183174830475,0.043326076978143294,0.05522334076506943,-0.008459063406747631,0.00041409948237076493
0.0706021860038959,0.001563521960337878,0.029719013294702456,0.01761719961391531,0.14245677449236216,0.01772617766517088,-0.002520954827855048,0.024804033171841225,0.04806407948762964,0.06861829410048502,0.003297592507467259,-0.014250899995162573,-0.07512176285756526,-0.058046583776872,-0.0870956300142966,0.019012713587452296,0.0944430981917175,0.026953404265741335,-0.003911139256006748,0.058046583776872,0.09482786941815513,0.06957345629438588,-0.04165042615176133,-0.015990392802300926,-0.048380946935657344,-0.06994541640471846,0.013997620666120689,0.055734303840077604,-0.00029813791486782215,0.03255434308369047,0.0015715152685876629,0.050454857560009565,0.007224961558027061,0.06558723429916576,-0.05089834258346308,-0.008498885159710288,-0.11382279424176113,-0.07324498691795177,0.03728378240809791,0.06685548800543942,-0.005748638953263208,0.04309119028829198,-0.011192286062982915,0.06296241779366478,0.0011809320199466936,0.060864490592342925,0.08402747258149652,-0.06602779883740463,-0.04693848734892879,-0.03279413473525105,0.02637264022130481,0.039454601649717175,-0.012698298652431404,0.02427504862551348,-0.002537418800067459,0.028789059087264805,0.0031850453322948627,0.06921787265419137,0.032256152713741076,-0.050657418700322386,-0.025348646703832307,-0.025309046816063337,0.035885114373299616,0.03384387463904444,-0.0003784105025973564,0.019071368084502636,0.0022864288184297936,0.028194433967001328,0.02949368276317907,0.04793852658548469,0.10503050239746628,-0.02268596719786656,0.06484740435159389,0.07753373040333292,0.05062894561567432,0.05160323502869901,0.01132581241469965,0.030228041119180798,-0.005859774646738783,0.05062894561567432,0.07753373040333292,0.0691853614228297,0.0900996330253202,0.05087249012088065,0.02245825904827863,0.004780465919396192,0.025107884461939508,-0.003340241092364761,0.05087249012088065,0.0900996330253202,0.06442377897352297,0.06587978468940883,0.04949670597397266,0.050681566739105496,0.013344326171548522,0.028251386619544832,-0.012769821280814931,0.04949670597397266,0.06587978468940883,0.06868765547603349,-0.01915383412325585,-0.0639986363547469,0.0654026072383032,0.08243205508390378,0.049727097805641135,0.034279598205033686,0.005696049630715291,0.026000690155043145,-0.002316316559172663,0.049727097805641135,0.08243205508390378,0.07077744890176808,0.034872596905599754,-0.010117382446470154
0.0860049617866661,0.003921560418079708,0.03371775048094346,0.0217804113146787,0.06443953354877685,0.018005211228193346,-0.0010572820591456169,0.028141452514450327,0.12055231485804858,0.07091147625570403,0.03601009977027093,-0.021593992919815893,-0.07773759064727186,-0.062445391829136616,-0.09004646938824398,0.02338806877841563,0.09076466730999704,0.03373119271065007,0.02075053174509276,0.062445391829136616,0.09804068056356736,0.07064570283924189,-0.028210040004556357,-0.013887929392028741,-0.0405920217191478,-0.05966331347716764,0.020173610644808753,0.06189870897740516,-0.000503730810985963,0.032993782869870786,-0.005088497166729235,0.043037902092546834,0.0,0.07357349449388821,-0.03014235956672513,-0.01681658691026777,-0.1323236425147614,-0.097754540967006,0.05251209272695993,0.08772714983711116,-0.006066599988867249,0.052121159510779974,0.0900021815618503,0.08403117412645811,0.09346254252476331,0.06712256320021798,0.06816605368453858,-0.07272154058388357,-0.08813052891575347,-0.051671119718978885,0.03517840299529227,0.056134336292494154,-0.010750195208559321,0.03255589438584588,-0.01674695769833309,0.0453606393552993,0.007817886818984356,0.0717401683772553,0.03490125436038091,-0.041900305644406804,-0.02339211502297939,-0.03368610501173741,0.04724606090589516,0.04128966011808123,-0.00037431690668821954,0.023382715542479487,0.008544037584334481,0.03712057123617021,0.034409280045625795,0.06026704842191736,0.08537501693398213,-0.031384185462976735,0.08269162715614412,0.08477507400808998,0.06777325783146157,0.06961623579640251,0.013866004794168768,0.04070421954363613,0.04734578208585089,0.06777325783146157,0.08477507400808998,0.07210746148808,0.08944663237471423,0.05244130762124571,0.020793547195232725,0.004963862814055773,0.02995817418468683,0.014345793729518799,0.05244130762124571,0.08944663237471423,0.08263917223796294,0.08188102034937851,0.06773463477359785,0.07111511340242169,0.014692647860429372,0.040155231554862086,0.012204784154905534,0.06773463477359785,0.08188102034937851,0.07297502750054127,0.00028376853194509566,-0.06622052117279553,0.070003638176038,0.09475463316462543,0.04961285747887216,0.030166336449900768,0.004943910100865465,0.024215918536375905,-0.0070502240702679025,0.04961285747887216,0.09475463316462543,0.06898701074708816,0.03994700572645747,-0.014236694423946573
0.0878716271804646,0.00784301585247847,0.026406358188526408,0.015402897653562963,0.025233536598383042,0.012705642159823933,-0.013987834980352816,0.022039230507443663,0.24110140242277228,0.07091283077912437,-0.01734914613355081,-0.02771569233622462,-0.0779480947404652,-0.06193696299212254,-0.09294876544340958,0.020939779160501038,0.09445919610885975,0.027366379200277045,-0.0035853964029635417,0.06193696299212254,0.10120063877601605,0.06802930938431227,-0.0522574639660759,-0.01718331892254734,-0.04497109935856074,-0.0531919281300166,0.01914746421212012,0.056876503049199216,-0.0005362752858718661,0.028285405609272247,-0.0016463055407810164,0.03836979312001361,0.023377538265346356,0.06950589841065534,-0.006643536876061362,-0.02055089809142569,-0.10594320695443246,-0.09005275431326402,0.04906408065950632,0.08729439673957413,-0.006153038600083544,0.04449280327517719,-0.03311292714679314,0.07741061032468176,0.060058951573505694,0.06490292206756201,0.03574340935246311,-0.08980107561235588,-0.0738209020471747,-0.03971569634042406,0.023584561594723615,0.04437893907981612,-0.009376780068846768,0.01829741723099868,0.003613283371431843,0.03486530557573444,0.011292498968399093,0.06783443030954708,0.017215385240611964,-0.06105438764083721,-0.02798893930130952,-0.04291018534059906,0.038564938966582564,0.04973322967879604,-0.00023985948337666775,0.022282444390383394,-0.006979631451772458,0.03755798191414555,0.01222601040803581,0.06823751389562961,0.03988449459498113,-0.053950028643887364,0.07365216548646278,0.040516007512434296,0.06396083093184772,0.0775194388642794,0.027380956498900735,0.03575385126449942,-0.013694214849291599,0.06396083093184772,0.040516007512434296,0.07185275507025675,0.0959969878128233,0.05225178531192893,0.022335189714727158,0.004608438330322743,0.025377528563579894,-0.0013680179445433737,0.05225178531192893,0.0959969878128233,0.07547415580720035,0.03736659752792359,0.06596994230381045,0.08213096325625571,0.03135704089616805,0.03309383530724706,-0.002915593346166611,0.06596994230381045,0.03736659752792359,0.06715009619150784,0.0036582147445069556,-0.07638801324825238,0.0706901684635196,0.09391056729571715,0.04865694741976635,0.028177275227697807,0.004892233460041205,0.024712744700163734,-0.0032729573607261963,0.04865694741976635,0.09391056729571715,0.07396338754240632,0.019696498617539453,-0.018750432556916413
0.03185705929259765,-0.0478269955941238,0.02124809479718621,0.026103111181449652,-0.003329657794413788,0.03706689309143091,-0.0032531243193485507,0.03685050001781569,0.009455969441936133,0.07166463471479971,-0.17722524195304504,0.17925909588542296,-0.07271509432390616,-0.05834495920780067,-0.08196816766697254,0.02161478915297914,0.08842853135131999,0.025772253310017198,-0.024770696956013586,0.05834495920780067,0.08924519747653487,0.07013988892140983,-0.025282253214331227,-0.015450338693498746,-0.056658905628175146,-0.1126297018027408,0.03771413271535217,0.05794854099316119,-0.0004988539788190958,0.07295386213129323,0.014293217961675481,0.08124500294061139,0.00042479292052014525,0.07713737263157958,-0.07456611944085029,0.04764545759338138,-0.05659688256531414,-0.059363804110459294,0.04848367371969891,0.04981416493422206,-0.009223521639300833,0.05570245667231366,0.13494528571052722,0.051029958410818345,0.027836314742541373,0.07143415530969707,0.026670293430255558,-0.06903712044778113,-0.02167993725358427,-0.021306009049721176,0.020196203516639838,0.019754660259999845,-0.014967722915975144,0.03023095841638389,-0.01605677746588061,0.018703952959822644,0.00028956681711987735,0.06957259992188687,-0.015292766530337506,-0.011594742894641989,0.0074149509929973415,-0.024851655219214095,0.02016473570255394,0.02256059494988265,-0.00021655182607621716,0.020961728666341814,-0.04428456252554772,0.021751898992072572,0.005671853179079421,0.07328118935374868,-0.06071851493996272,-0.031381954511306154,0.03943569576795292,0.012877463109393495,0.038798020641740316,0.041790302582980075,0.05225651178902953,0.04310632551125014,0.0783033574660344,0.038798020641740316,0.012877463109393495,0.06689173494436623,0.07895915354180197,0.06877679168835178,0.03644473677292399,0.007374790394175358,0.037517576502951996,0.003690504062273787,0.06877679168835178,0.07895915354180197,0.03678120586778583,0.014360752704193392,0.03403483821032974,0.03731417857003588,0.04209388491102591,0.039380950389090515,0.060300667923941884,0.03403483821032974,0.014360752704193392,0.07405046415832081,0.0011189957815895375,-0.051787055778360236,0.06276145277053853,0.07489223523880188,0.07298836394470642,0.046491363303804996,0.009202241247619567,0.05353185598094773,0.01908516962633627,0.07298836394470642,0.07489223523880188,0.061893815016678934,0.1383329971117866,0.12454793848900148
0.010963931984525487,-0.018018454144547797,0.027305465895372374,0.026396262332188947,-0.011357552897383008,0.019188031548605617,-0.012849274779293568,0.022789642278000018,0.00551544429224193,0.06862372549040986,0.012920122655758724,-0.008365443120682617,-0.07527876789017732,-0.06062172988716572,-0.09396460868991655,0.018084289532239586,0.09756330643611177,0.01619070546800495,-0.02716081289002211,0.06062172988716572,0.10230666729562451,0.06728490803035482,-0.1176610304480698,0.03535001145084442,-0.06747489155039911,-0.06823179415588818,0.016804852792641375,0.05765413886578312,-0.0003669189744845742,0.029677398460216706,-0.008007463404832512,0.0492187427304671,0.008076288353659648,0.07100049394511473,-0.02400082785378959,-0.01711993576979508,-0.12101708984608588,-0.06757147923694412,0.03527695136014079,0.058407145841077146,-0.0058959065907067424,0.03197231328579999,0.0158895679231209,0.05808539103731732,0.10628410279866832,0.058742255438664404,0.12077914868348211,-0.028803360007325834,-0.014574173361006509,-0.016933765852153015,0.01630182344949175,0.016763492583671772,-0.015200950283349855,0.015031645573952153,-0.0022126251303807008,0.014865682221019519,0.017662627564193577,0.06593179863939377,0.028545343715623003,-0.02502345460487102,0.02677308932676636,-0.00919866937636998,0.023203127948672665,0.016543219215565053,-0.0006732031839105949,0.013140828825848761,-0.024669400074169616,0.01823037407576141,0.003907278102158397,0.06961133094559434,-0.0692573427641639,-0.037317954862575616,0.05829752678723267,0.026145034151930854,0.04374547413726861,0.045132239518745364,0.029020512358895897,0.025440210636644117,0.001090827824824935,0.04374547413726861,0.026145034151930854,0.06970129565996783,0.09026325069797732,0.05195427262514311,0.02435520049308342,0.004873270870458651,0.013943673657768241,-0.029478861276706587,0.05195427262514311,0.09026325069797732,0.050658579649296764,0.03119524941268567,0.035441597831375,0.03692246015225263,0.02017889373954505,0.02231252500264251,-0.006147588533787949,0.035441597831375,0.03119524941268567,0.060552551626150516,-0.07276329433341076,-0.04087129442373257,0.06544140787209989,0.08440143967928594,0.04621596236479855,0.0387089624506242,0.005170337875530781,0.01695767642641229,-0.030163886903836888,0.04621596236479855,0.08440143967928594,0.064371954223451,0.021769049617961896,-0.02743856991682359
0.01759145326848609,-0.003485773158470326,0.026950552407987452,0.010155725379730354,-0.057945705660371244,0.015669416005293483,0.07961726971790442,0.022493424976741273,0.0023623787138215874,0.0673057945085247,0.22849883415911432,0.3548935373272598,-0.0704386790788448,-0.054233525944723596,-0.0838304478842378,0.014250623247812918,0.09729364446777375,0.015795875844817637,0.07181383898691292,0.054233525944723596,0.09127280856602185,0.0633480276400866,-0.01977708409222021,-0.0009988209576990545,-0.05956093567397771,-0.06277506085280578,-0.006175989978688066,0.020548288449628967,0.00014656885325962756,0.02103043209181552,0.15123849759285346,0.04528254911404865,0.13558728460257966,0.05975557094096675,-0.1116928471477566,0.10066962798084697,-0.07362551964778809,-0.04306192518788989,0.03346686753183488,0.0392926767718545,-0.008776969658100703,0.03788242524795452,0.15031292836241025,0.037016634704524,0.0026992700312572157,0.06125279170988281,0.111962613443486,-0.02721671071099369,-0.044257643348610445,-0.037226524800575325,0.021748994412353968,0.03499250132253313,-0.009225178746395,0.027386729749985836,0.06891625514710525,0.03268013108896826,0.0943936995996425,0.07327103046195713,0.011658979694958353,-0.025506261726338155,-0.029362824684323142,-0.022412228191217534,0.02542058820890975,0.018687028060827116,-0.0003027089041203749,0.019916080027535723,0.0646217634271371,0.019972601681094677,0.037182190814251594,0.0617905956977817,0.17372136936826418,0.10866525582736657,0.043837504875850405,0.06855460550071621,0.03290698416759935,0.025871619601697128,0.008325543750206372,0.02387738363025188,0.12439122077043631,0.03290698416759935,0.06855460550071621,0.06322863205132306,0.08060647198007738,0.046825330289288564,0.018490747209629333,0.004918369907269512,0.018399371141720005,0.14990638529106254,0.046825330289288564,0.08060647198007738,0.04344734781226927,0.07460299764391916,0.03451555044689221,0.02435187291779436,0.008217336050620153,0.027757449398767373,0.09705061567924361,0.03451555044689221,0.07460299764391916,0.07546411876651475,0.00633201062357686,-0.03089375360890676,0.05706898913154841,0.07534234736458086,0.048410440484875736,0.022230037050593683,0.006067037311417159,0.02195375944624395,0.20067201217599664,0.048410440484875736,0.07534234736458086,0.057856259342781165,0.06757191466336411,0.07168664341916539
0.023642004140078162,-0.02324716637409376,0.05513157495137605,0.03740839764048231,-0.017773914286802264,0.05026115360043287,0.0007318363843550238,0.046013822879965624,0.0,0.07795675049136618,0.10792112572327944,0.04505774578760696,-0.07066432172153887,-0.06315273762010314,0.014318396748673494,0.0439585645127775,-0.014270945129982799,0.05044250980611583,-0.04834611344307215,0.06315273762010314,0.0134828910621275,0.06458856731863243,0.2507990429642422,0.31458526084593363,-0.049475171403979064,-0.08978811654634257,0.00968019281594294,0.040126674014553436,-0.00016061547856531408,0.05951513660923256,-0.026415985442197545,0.06476831311882283,0.005100996955426334,0.06476455223444341,-0.1396337251921861,0.10119075303074812,-0.04361562304176416,-0.06837995379503466,0.04698346892091725,0.06711180193890198,-0.007759598496548321,0.07564165519396708,0.04981435350239364,0.05878036710385778,0.0026992700312572157,0.0719030170858264,-0.004249947451764757,-0.08496706523453111,-0.051387932064712066,-0.06379310523957953,0.05621797541055576,0.05966018860693866,-0.013915203504680488,0.08498405330158255,0.21661424784261818,0.056002193408329834,0.038220771574766894,0.08280449949381237,-0.014457319327469907,0.003657893188048969,-0.04866050642381196,-0.048788525025529446,0.05091666603625978,0.033764283168024684,-0.00027852674641944114,0.06444000185944514,0.08267253551029659,0.04270311409708516,0.01701557604865472,0.06239877042302547,0.11204504823957467,0.049534285317945334,0.05741828512627195,0.04599550142674602,0.05904243661705046,0.06183116263606675,0.02226435281140474,0.06966863566297003,0.18232012086932498,0.05904243661705046,0.04599550142674602,0.06472220434896157,0.011886504535086448,0.056124325112823656,0.04714594315302007,0.03997672601458895,0.051596903000404065,-0.04339701032495126,0.056124325112823656,0.011886504535086448,0.0585969331989456,0.04983948946474408,0.06407830875649383,0.06647251527986041,0.0228354712387184,0.07524629406010251,0.22481660984834217,0.06407830875649383,0.04983948946474408,0.07227382651207784,0.042891331979549405,-0.0406814052044796,0.05903343825081752,0.01082212750407218,0.0571522018982095,0.05169210971309068,0.04986514648221847,0.054746801851715834,-0.03973132622683413,0.0571522018982095,0.01082212750407218,0.06742487768644918,0.009932137790258266,0.030506418267462275
0.034723219238974735,0.0009227015718397643,0.020490971868881727,0.011534085977307307,0.16643858031448822,0.01171887888027899,-0.0024400097930813397,0.01710214067065299,0.02836468103248351,0.061732923795079234,0.08058910643428276,0.02025381579497319,-0.07789918472910745,-0.06206960447484459,-0.09282790248644268,0.021428129045204025,0.0941347742089614,0.015372210763320725,-0.015101652268955901,0.06206960447484459,0.10106904575924969,0.06926871133305032,-0.0785417965894973,0.004900130933205985,-0.036558167372283804,-0.04633716205876863,0.002361960703062673,0.03319365922852551,-7.593910700919605e-05,0.019237544038626528,-0.002694288904013454,0.03342513393418779,0.002125705557193022,0.05590511642521807,-0.07026305301306247,-0.0021947761467327486,-0.12336365643230546,-0.07746229426319957,0.06456783850345076,0.08150276639980103,-0.009413451010290688,0.03803155559079484,0.016991389904177444,0.06658767432259596,0.1088146808844169,0.05608390509221441,0.1209036795311468,-0.031999832269761004,-0.10540243212703218,-0.043148716583969834,0.010442890559563957,0.030308418591481732,-0.0038215623328098783,0.019245719558660217,-0.00669878201564785,0.0378790585970324,0.002895516446379743,0.06894110443735303,-0.020865038431912217,-0.030432286452012083,0.004482982096867893,-0.023233840481513564,0.06050364361899591,0.04309147556499757,-0.000695000571907869,0.02092466257715243,-5.600619795391143e-17,0.047536869104923746,0.010209355536042708,0.060868064756122206,0.10919762912028987,-0.014536610860859488,0.07748514513553652,0.08869838191389834,0.05567812609048307,0.049164892390298205,0.010887547782971239,0.027840951194803905,0.009597714628595719,0.05567812609048307,0.08869838191389834,0.0694730269910713,0.0885590600879785,0.05185545675968558,0.024009105739540758,0.004957602679223071,0.012512196984313865,-0.013722213088442846,0.05185545675968558,0.0885590600879785,0.07468472192840263,0.09423673529769712,0.05633696996887099,0.048944494299034254,0.010618074677964884,0.028335548410886882,-0.00978642584817106,0.05633696996887099,0.09423673529769712,0.0726179363903523,-0.020741281756474498,-0.048725172708583245,0.05977124219140877,0.07708671430909995,0.04241623403984178,0.02754961416019464,0.005195523938239005,0.01159587787101318,-0.010323593953978607,0.04241623403984178,0.07708671430909995,0.071697815926292,0.02082606058237355,-0.019146692899917758
0.14206233400909227,0.01499397928015688,0.05267073159851133,0.025190371672202484,0.026327228963474378,0.028245510270350285,-0.025291825741885668,0.043959957916486436,0.46092848724785074,0.06868950260193042,0.051094173421273356,-0.00843836583633611,-0.08131462058672718,-0.07901272045229518,-0.08027509558946093,0.040865820525264156,0.06394908607407603,0.030938241096237818,-0.018034672958038275,0.07901272045229518,0.0874018166105208,0.08735207757677547,-0.09507956382682349,0.024582714692753988,-0.06787874194143588,-0.05878396684403661,0.007260184262128484,0.043411685861106664,-0.0001839971106436336,0.03174615485630558,-0.03966152655814915,0.042403588775091094,0.008925874194699937,0.06810939537911984,-0.03281707946310219,-0.016174043291447227,-0.14595800743516543,-0.11339451081496399,0.08004208381340228,0.12002527901652493,-0.007971670313084689,0.05018246094844061,-0.02151469667390264,0.09747551151094744,0.015183446414144987,0.06128313136974485,0.06276846774771169,-0.08019311091659599,-0.17171270984388728,-0.07090436197786658,0.01342444797170529,0.05628323807627992,-0.0029895896837611067,0.03034364140282549,-0.014676424978616012,0.06224496797994223,0.1166891307193208,0.06984323660407747,0.008977659867324572,-0.03867159045340559,0.014158162101008821,-0.032347808532244886,0.07247793001316917,0.053306929704327655,-0.0005979784778847129,0.033172008236180085,0.008784711812957136,0.05694489895068281,0.012856218151424244,0.0643405773888672,0.06302059164729931,-0.03861906055079992,0.11118483904553363,0.17136291685483415,0.07717748342651692,0.058289747670500644,0.007811508836449803,0.029372144976436948,-0.010695423539727805,0.07717748342651692,0.17136291685483415,0.07641354285708851,0.09887239968116365,0.0665853007754545,0.0405703575531081,0.005701820530563044,0.02367453061016191,-0.029367961657572505,0.0665853007754545,0.09887239968116365,0.10542504512011543,0.19422818903916253,0.07521168609144337,0.05114229126904397,0.006877737343473584,0.02932864783143905,-0.0035936349364681457,0.07521168609144337,0.19422818903916253,0.06921039729285546,-0.020082150179907405,-0.05470795506298217,0.07718330817297134,0.09556120889573205,0.05499980972735591,0.03683822185590249,0.0054344591723134135,0.024129323696457313,-0.05675202457616615,0.05499980972735591,0.09556120889573205,0.07194015567090366,0.012038925442055683,-0.016563821087927533
0.1637669217261566,-0.0043316266758571705,0.11563424508499816,0.05578990077649727,-0.20007284874071005,0.11004144404702403,0.054325443976016685,0.09651046023793734,0.018121252019273514,0.0783344151993899,0.10606961793733724,0.05709835784101508,-0.0811800472163351,-0.09054026124371427,-0.041842656633940004,0.061508963204884144,0.029088949192571763,0.10867160796398827,0.0023901159340103087,0.09054026124371427,0.04555739454138685,0.07333267505641698,-0.05926191668134631,0.011587096683971357,-0.006101695600183994,-0.12131095238368306,0.08508910896306335,0.08429442136036223,-0.0010449516914156757,0.09628401596690572,0.017211571164761085,0.08750718971450619,0.0017009126366728767,0.09091725144221034,0.008225860458215562,0.030844132338051493,-0.07070846823598086,-0.1549245891457571,0.12123131805539163,0.1412851252595877,-0.008837256251067587,0.14143528521470908,0.09823692147515403,0.1331753491776007,0.049936661330857904,0.06661726021541542,-0.05380419121696042,-0.06646249617766468,-0.09126890145371011,-0.1381351144228651,0.16255686515574155,0.12167396191389863,-0.018581866145616993,0.13410299619696456,-0.0027404098575965537,0.13308847391843243,0.042274479427216634,0.07172689911918351,-0.028953396217183198,0.051841330246581746,0.03133668024688433,-0.07568150493943773,0.13300044541871703,0.08329847728930509,-0.0004690163384290727,0.1138215031823371,-0.002286444582773099,0.10449659535514484,0.009453099639410007,0.07682451508866374,0.03183242206796552,-0.012402816461589812,0.11069945035387475,0.012270960322409616,0.10656837646803505,0.14961638917216966,0.1506298205755829,0.12622954334952963,0.04666552867594183,0.10656837646803505,0.012270960322409616,0.07949850512130612,0.08218204328518554,0.08306852150916706,0.0663608738302957,0.00855795105384861,0.08416569492167385,0.015322153528320588,0.08306852150916706,0.08218204328518554,0.10726221588543715,0.01493361892885996,0.10603969539490996,0.14103285756868159,0.12611766721144196,0.1237044399966514,0.08909491130333526,0.10603969539490996,0.01493361892885996,0.06932458876369244,-0.02981092459412321,-0.07138808118951315,0.08031873021398468,0.08391383741570528,0.0804856224148202,0.06373397611972809,0.009056523186766051,0.08321372976570571,0.05932039267900012,0.0804856224148202,0.08391383741570528,0.07381416351305646,0.07228677460035406,0.01700381517726752
0.04384651147497068,-0.019684440177489566,0.024608045856896903,0.027483468384194566,-0.009369291810326733,0.022809711090979776,0.000732169491494027,0.020538326076843992,0.0007874595712738623,0.0687749862537044,-0.054706309017731526,-0.002838356368610246,-0.08187021653270993,-0.069551987474417,-0.08598309640221613,0.02865427830610557,0.07781334088217219,0.026637493512899523,0.00086953761591071,0.069551987474417,0.0936165664851336,0.07012516720823174,-0.040343960555352665,-0.00027971537218612945,-0.021089835458949012,-0.0589418077636901,0.03672676415017395,0.061420541841944905,-0.0009282852806789994,0.030950709725859157,0.026491388749409196,0.042517446716434634,0.022526211469713772,0.07051227829857341,-0.01929461984828362,-0.01515904701377538,-0.14659768071435988,-0.12362100917643576,0.07155731792208497,0.1281132426575721,-0.006537094211368506,0.05670746714789551,0.13047997316988388,0.10626635289811959,0.1022351867016092,0.061072079792660675,0.048364633120029255,-0.09043058353297273,-0.04456199234836181,-0.05649678033005163,0.028471139945617695,0.04888169708086513,-0.007957364662302555,0.03658057932058083,-0.017152942472604606,0.04959695263475671,0.05472516980168572,0.06886399802569108,-0.05640102697217166,-0.008117864895636156,-0.01679385861102857,-0.02355570995734096,0.025109200640511968,0.026583199800006868,-0.0002844862789346451,0.018236411357353113,0.012876220992571512,0.02061759746620379,0.003907278102158397,0.07118855218046485,0.07683486651304827,-0.028981897788211114,0.10520621456333658,0.14250441812890005,0.07981223462977571,0.07385891544623528,0.009714094019371925,0.03473027905115013,0.06800513896496789,0.07981223462977571,0.14250441812890005,0.07474936377262333,0.09322093666874375,0.05776156039664146,0.02497108776050771,0.005246089638503733,0.019847198335837903,-0.016511619938254656,0.05776156039664146,0.09322093666874375,0.0902759627932233,0.14425850045690708,0.06659840597472821,0.05620709313281325,0.008199642985590741,0.03279840128713803,0.021154958609678257,0.06659840597472821,0.14425850045690708,0.07564681552666463,-0.01893438912309429,-0.058679409553158916,0.07049386890114023,0.10475159351679592,0.04342028806075688,0.013815614712621741,0.003913892026330819,0.015569682821633186,-0.014149744637208231,0.04342028806075688,0.10475159351679592,0.07068947052600169,0.0050898079570972175,-0.012714869915471652
0.08666565031161333,-0.03329441959172728,0.036344226589116985,0.03996297600117049,-0.008181193960266593,0.0420110390250447,0.01244288406972989,0.03033355761114939,0.02836468103248351,0.07065872506713787,-0.09431195518118585,0.022978955212202955,-0.08214719985538087,-0.07702332456211768,-0.0713502578294337,0.04465950703384164,0.058307418305988956,0.03762993489127273,-0.022815349829956835,0.07702332456211768,0.07768464309048126,0.07136459314237328,-0.013816640221810728,-0.017531585027822025,-0.022179618823729107,-0.10207708041195704,0.06704518831796759,0.11530342131773597,-0.0009785017906610747,0.04745564770396454,0.01272139617557798,0.07363291001838258,0.029752913982333127,0.07099757764191116,-0.011187862416312873,-0.015566116076259587,-0.16455921648206773,-0.14539782342924418,0.08022899438085627,0.13864346136432706,-0.0062315547889547065,0.14755504431392596,0.10670361551428469,0.12498600778366517,0.062420815613399086,0.06811843289502363,0.040555541597595425,-0.08357493281939496,-0.013145703368555075,-0.04047447687288026,0.04693099565333941,0.05306990558925644,-0.018309084427313774,0.060419829902953866,0.01776192362283205,0.03842332087907465,0.01650443615812358,0.07258199765399181,0.015315499147953411,-0.040570211478697535,-0.032373635219283436,-0.038099094564317114,0.12375316370226472,0.04167049514531734,-0.0008668945878211136,0.147249071649818,-0.01155248908863185,0.09723113505824903,0.02319160532929476,0.07156102689696117,0.3094228941621906,0.438606616192341,0.11193922812939164,0.08505386953734748,0.09435126486483096,0.10019893393039514,0.01924043165362538,0.06240232168961618,0.04551181546067977,0.09435126486483096,0.08505386953734748,0.08158709785393971,0.0894889091579414,0.06444283202063116,0.03623345081424425,0.006096992432224071,0.027731936719146595,-0.010843935346601044,0.06444283202063116,0.0894889091579414,0.09867810477940601,0.09671048271316274,0.08111757850460614,0.08110997982424693,0.014897519042634554,0.06428853513962507,0.07727435476267996,0.08111757850460614,0.09671048271316274,0.07204417691636314,0.019967318422230807,-0.06622527816253541,0.08464514112556888,0.10109415400765005,0.05858312417181131,0.028714164872837337,0.00547171242925289,0.031004501336528618,-0.0066975169183366426,0.05858312417181131,0.10109415400765005,0.06784094301094631,0.034534824150297586,-0.000181635476992691
0.0813651320078953,-0.01325114519276219,0.055510136415528294,0.03820973171681733,-0.03139580247506583,0.031558174737760326,0.0034153474960358214,0.04632977721604335,0.012605807727031584,0.07713382361657713,0.05527068386083514,0.008460838569141106,-0.07697526832758443,-0.07540967075610157,-0.07730008362412018,0.038872488328319674,0.0645213498885317,0.03201522561307102,-0.031723882856014025,0.07540967075610157,0.08416268686175528,0.06630582393366277,-0.09076033751876876,0.029768636060790617,-0.05106722998410278,-0.0794383147340018,0.019825085639270382,0.07372658965212138,-0.0003717982143567285,0.034026525484854506,0.014966636928923475,0.057302523320754584,0.009775460035740228,0.0681904103341544,-0.03832306580815452,-0.014598074955009704,-0.14778046771709605,-0.11199031796585159,0.07437081695219429,0.10643374054650524,-0.007499719990680903,0.06852985250257032,0.05799109918661506,0.09626844764830071,0.0231125866627546,0.06651968617109151,0.07550400914321999,-0.05624533154756064,-0.10939997704472056,-0.06005934883895534,0.01136067447569384,0.04658632035556101,-0.0029868375338996406,0.03803867079900133,-0.021760893992389178,0.05272443247629712,0.03242973868200741,0.07183453196424487,-0.04373060833196492,-0.0390546478512607,-0.004178224113196757,-0.025597034652035146,0.015607146715317733,0.01705220114334798,-0.00016272657831839472,0.02895039971752701,-0.03164901576159886,0.02240430697015189,0.0010083356917047813,0.07213134881819083,-0.04262081706148664,-0.008284663890031073,0.09104535158752013,0.031083434964388444,0.07658055680499276,0.0898160830860544,0.042731749623296796,0.04639447669449947,0.01424683771164651,0.07658055680499276,0.031083434964388444,0.07274950699034301,0.07726504085960838,0.0659983845606867,0.04701891916493335,0.007232034999542515,0.02375987532683973,-0.01796841019188046,0.0659983845606867,0.07726504085960838,0.08050106711970922,0.03222380828468368,0.07218798570757767,0.08208203694477184,0.0397887761555985,0.0443278744775804,0.010735687627540935,0.07218798570757767,0.03222380828468368,0.0719834488225543,-0.007376290536890364,-0.0480369590782023,0.07213383396565771,0.08697097377570676,0.06287584174048191,0.05304880070645974,0.006826313946917467,0.02800293855135144,-0.0019136941260915745,0.06287584174048191,0.08697097377570676,0.0661015987197251,0.045538714822810605,-0.011275158870245317
0.03814957090843009,-0.0907842181638581,0.06033713429625088,0.04921990565829132,-0.004981120268500622,0.08450390530781997,-0.013093442312172042,0.06994886029336264,0.0307270597463051,0.06743913932996737,-0.09249153189343422,0.14904463658285214,-0.07410272385565136,-0.07314399125873887,-0.07483309235003041,0.03468323080929607,0.06439698921459863,0.04560684314965882,-0.02792132455101984,0.07314399125873887,0.08147667923592249,0.0623662189656152,-0.049750035014740776,0.006517395788162822,-0.10231152857910572,-0.11831197491026665,0.01905063849385792,0.06531261158551846,-0.00023988499414714454,0.08651761451269853,-0.024694889629223775,0.0853438888289789,0.029752913982333127,0.07310886617602846,-0.06594529131754708,0.008320601454763295,-0.07069757035235456,-0.08305542786367559,0.0639530000592015,0.07930329493240583,-0.008695926829126455,0.0736586502820167,-0.08269530373285827,0.0713956103923155,0.017039190416819335,0.07241981129433846,0.031827392058428036,-0.07550231042983956,-0.04335987461250463,-0.05335061657016317,0.05896140463669915,0.04756706592782859,-0.01745084583419287,0.07881839082413623,0.04715536381392945,0.048272851199900955,0.0026059496292598658,0.07039126469688067,0.012254871650154788,0.0054808057318049075,-0.003674772557606185,-0.053557264584192,0.0333751383312167,0.041443960554227756,-0.00016631419683799255,0.052816924082624006,-0.1022877294903613,0.04687704699147564,0.006554157228956391,0.07047653663175261,-0.04976997172264895,-0.032939842078006265,0.06322867018900938,0.03220540085060611,0.05910194266921147,0.06691414281060505,0.03182982188290352,0.06837285634144512,-0.022709599346512545,0.05910194266921147,0.03220540085060611,0.07137577053170635,0.07472104321133673,0.07621705235411803,0.05445309685447187,0.008636136031031907,0.05036565268868809,0.012878644198953567,0.07621705235411803,0.07472104321133673,0.062453746958643835,0.03916331874248019,0.06214089335103951,0.06882420976208933,0.028181916750372047,0.07278647206387678,0.003096399897036136,0.06214089335103951,0.03916331874248019,0.0749261442538107,0.01672176016152207,-0.059493138430865754,0.07180917370784252,0.07808066390516216,0.08525332757191938,0.06367193275464793,0.010309666581330385,0.07424973254704517,-0.006848500330742211,0.08525332757191938,0.07808066390516216,0.06485540525639215,0.08993555942991459,0.0499615738503387
0.010695953218228006,-0.02596393406963016,0.021224446820418894,0.023496594907396893,-0.006126586763654344,0.030863632531483658,-0.00837631211697221,0.020005102578783466,0.0007874595712738623,0.07575809130954524,-0.08029543771410938,0.02980082532970067,-0.07784811744400714,-0.06026807962674778,-0.08765199588833436,0.022837546265750713,0.09154296655309975,0.02404547842974697,-0.010430001351951419,0.06026807962674778,0.0954336287477944,0.07060046589413461,-0.007102457691380372,-0.023739008124176498,-0.14826950458895333,-0.09871735008180187,-0.016669328507211322,0.05460016468477978,0.0002515630585426054,0.0303989993144861,-0.0006734189672492754,0.0712093814447992,0.36595736007351287,0.06507329584440963,-0.04812960335474296,-0.012554319000860119,-0.1526502457200162,-0.09622742166910392,0.05848831900289291,0.09392422166799738,-0.006864252722247992,0.045710702891804005,-0.0027255844270183925,0.08271844096476083,0.09379994851612712,0.056684902396442416,0.0947755374554028,-0.060401715570510536,-0.07589988293848327,-0.06356176987400365,0.030986363508009398,0.056529321959738595,-0.00769773105167989,0.043314409392569315,0.007125067225278976,0.0557991105228595,0.004632803555484734,0.06953953777648832,-0.05358252259500294,-0.02398997267262049,0.014218618834233176,-0.020015153490440488,0.030015922005366097,0.01805755679657942,-0.00040023715169221544,0.029740488636151165,-0.011913508313737681,0.023583091365834804,0.006428109075712122,0.07749655434048085,-0.017814278287789437,0.010682519433233877,0.08750893228529191,0.046296684975983264,0.07352444142910518,0.07576032923914179,0.02754501416169864,0.0419099703948364,-0.0003148835205019151,0.07352444142910518,0.046296684975983264,0.07703277325997068,0.08587685558027659,0.05327771718232153,0.02528205284905707,0.005252665274729937,0.0192456409072008,-0.011895191307655123,0.05327771718232153,0.08587685558027659,0.07860139558506603,0.05370634714113946,0.07066468977849871,0.07300113593842959,0.023369496983260612,0.04454320994527509,-0.011413729217842524,0.07066468977849871,0.05370634714113946,0.07336924623276442,0.020853009029590024,-0.04572859457668476,0.07750129572864814,0.08730861548808064,0.05213200567183624,0.03344357490477876,0.005637987529385911,0.021472413263401404,-0.019639187994808713,0.05213200567183624,0.08730861548808064,0.07258863441256155,-0.009023118230803739,-0.008735861730900437
0.04462074011726876,-0.1509396573789043,0.07067721213776103,0.07070766013196071,-0.00350936674714752,0.10935691836039732,-0.0049606315137986,0.11629837454422498,0.038608110045693506,0.07895229486487036,-0.20838417420970073,0.28321979383465623,-0.0745615712211879,-0.07965374550190067,-0.07289819529058753,0.03803967940845116,0.05760512196756712,0.06708549524693366,0.008474654225894664,0.07965374550190067,0.0793700044732472,0.06586183790661815,-0.08148697401088485,0.03190536822271114,-0.06940995740303924,-0.15441210505891623,0.032777210589118505,0.06556857286116505,-0.00031623715737490616,0.09140880923411868,-0.02776343641171501,0.11138457910107298,0.008501081274179792,0.07217831348134582,-0.09506573307166763,0.09019619051025711,-0.05250844856912224,-0.10913937989936875,0.08508375660771489,0.10363970298009037,-0.008804164512625553,0.06577309742322963,-0.09075606855574939,0.09381774131058465,0.01771402449989358,0.0686597232089181,-0.041073030092384485,-0.07594440649088025,-0.03678199686914814,-0.08458092244006751,0.08901510174498953,0.07086474088637439,-0.016618023887884605,0.10595735352498857,-0.06883506138330711,0.07425124015133813,0.011582065785518972,0.06696139306660315,-0.026629711350913958,0.013627192372306658,-0.012609624051484672,-0.06017251412417964,0.03230887064792722,0.038716187092751264,-0.00014330068156022117,0.06306271217004167,-0.02503041929927525,0.05266717398832508,0.02167911004744582,0.0692890655960607,-0.019967174938926795,-0.022599467833820486,0.07514411113751227,0.04056731999572197,0.08145303014502042,0.0999334143980318,0.03482507725382269,0.08319326869151632,-0.04777782154640954,0.08145303014502042,0.04056731999572197,0.07071762720174993,0.0699150304594648,0.08792052277826369,0.06294971664655041,0.010647066409897625,0.073696068151302,-0.00043151548754247025,0.08792052277826369,0.0699150304594648,0.07383134107298146,0.04497011376320298,0.08137146093227626,0.09494167783273712,0.032138133434297604,0.09073713695604006,-0.01735791149219856,0.08137146093227626,0.04497011376320298,0.07184947161909021,0.036332953486130526,-0.05749516241022152,0.0707242339096811,0.06350737154743988,0.0972597174912051,0.07477623022321514,0.014460577712400077,0.08461149397486135,-0.001208898606706709,0.0972597174912051,0.06350737154743988,0.07868323879490914,0.13727618217181664,0.1117068444648977
0.08096311430757204,0.004177825583270386,0.028772512716384282,0.012473724111736806,0.05161550629888047,0.02611569334215586,0.04041855403043758,0.024014066442159934,0.1284301378641121,0.06933409543222745,0.011637814957023075,0.02064951430746065,-0.06389397874647997,-0.05981492561922298,-0.06837534493209044,0.02884663309478901,0.0719516054959733,0.03155576986072982,0.006518417092045914,0.05981492561922298,0.07444562120484424,0.06425110058658166,-0.04701686138031499,-0.010128301321783564,-0.13937086542258603,-0.1556522969074283,0.0014132907050523069,0.048552025933088806,-1.3526898105991522e-05,0.07671611042445019,0.009503881883718361,0.1122791867291368,0.031027292743893563,0.06616665303560919,-0.15578507640956887,0.1687478645470149,-0.06551682587755532,-0.06337308336719107,0.05953108467958708,0.05388077143331972,-0.010608694231668407,0.046791359891036104,0.031605153158995404,0.05447639107789757,0.016364378434091678,0.06901899275093921,0.052960716864289326,-0.036478172133201724,-0.0432143335741753,-0.022860583991321463,0.023167838406534913,0.024747947857423108,-0.016002443347700433,0.03007347336636625,0.042791006881606655,0.020068671078188004,0.002026853926224869,0.07390310156950365,0.10229219675655224,0.019070245027492598,-0.026837788812456714,-0.023970750336570812,-0.0014437083587934408,0.009191172201860628,1.6073945011482628e-05,0.02338661716882588,0.05535571892127805,0.020980869704089147,0.019284327227136366,0.07433129936288525,-0.0275383578355498,-0.024377158975623422,0.043331066486170404,0.027094303580270145,0.041759352960657734,0.04977004259214616,0.026732337123890084,0.04026439371753301,0.006041629090612595,0.041759352960657734,0.027094303580270145,0.06520382582563017,0.0766176472657713,0.07458579542111173,0.043948989816157476,0.00824209405608653,0.05507208643821051,0.01537525173113693,0.07458579542111173,0.0766176472657713,0.04151598568579494,0.02995837741053623,0.03853189043020448,0.04409535362303975,0.02284412623988569,0.034315620587855415,-0.018465380113875333,0.03853189043020448,0.02995837741053623,0.06805698538783629,0.010912292366741527,-0.07751738364761968,0.071298220783267,0.07682405287232948,0.07366176375835116,0.043418302038422084,0.009053607801437153,0.0562658193400436,0.04078903515964213,0.07366176375835116,0.07682405287232948,0.06152343148471328,0.10688495465899024,0.08510233671669805
0.09268268192068413,0.010713689624282602,0.02770777225422951,0.012042939944478604,0.01938274376826919,0.01976281101993623,-0.026837442866786236,0.023125414538383703,0.32934851109864316,0.06982890110493128,0.0033150339817015397,-0.02421415495552388,-0.0650338106887732,-0.050343146729473064,-0.06852038048045071,0.02464337085578651,0.08567023018085644,0.01820473209640257,0.007170347802028325,0.050343146729473064,0.07460353282496388,0.07268202506704292,0.01991402409702478,-0.031383490782366893,-0.11696443762829048,-0.058220209691570296,-0.012468154959222258,0.0206880839040143,0.00031904406908732797,0.024731671166227508,0.009055140250558287,0.04199692471777045,0.27372506768287247,0.07428605929757714,0.02322029747171002,0.004823079621594962,-0.08879545486316584,-0.0730133185560304,0.03055991321799857,0.04769863765786805,-0.004726862865799247,0.04495640474830921,0.046160914587897645,0.0627632724213104,0.02142553460558887,0.07229504777362974,-0.016855656448469647,-0.05865308317195469,-0.0503928679595837,-0.03389991922521997,0.026526430867550275,0.02783680869846599,-0.012355725741977146,0.0251860164189216,-0.01857389583058846,0.029759796546157923,0.026928272606367803,0.07696704857628699,0.033655682690966165,0.009419881928327677,-0.011877073913024111,-0.012688405047887258,0.006642945505493399,0.007198171463020056,-0.00013972634270362046,0.012313673306916295,0.010469447177658736,0.011105775552477484,0.0008822875384605118,0.07509848548596096,-0.004430589026480473,-0.007809200766387667,0.04287518843196702,0.013816267461827252,0.04768780846660799,0.059053134417614984,0.059865662604594916,0.03787200727607443,-0.005239096855065518,0.04768780846660799,0.013816267461827252,0.06351545443064446,0.07732211846479736,0.04871435015352992,0.029859477642840762,0.0053341278595928415,0.020697426057743544,-0.006792638303980458,0.04871435015352992,0.07732211846479736,0.03962606022299793,0.01493362063444333,0.04008223897806115,0.05055781992858878,0.04767156186514106,0.03232361692419269,-0.02807100237196677,0.04008223897806115,0.01493362063444333,0.07334990472739068,0.02584334271971828,-0.06990700355121388,0.06956291691582109,0.09312296710567003,0.0483863808170048,0.03085685672555159,0.004906175873905249,0.02197498823315413,-0.028048675299711237,0.0483863808170048,0.09312296710567003,0.0698645862149251,0.02132337907084736,-0.022943689615011968
0.08527536704977215,0.00776616779802555,0.030002885933847857,0.010440665634374624,0.02895402647144608,0.013333648001197062,0.008294700867920859,0.025040958479156047,0.2387390237089507,0.06928707782843256,0.06256624834768383,0.01965832623726609,-0.07510095606853877,-0.060997517241457765,-0.08557196421253367,0.02279260234831123,0.0883018633640452,0.019920699193981616,-0.0016300492769093157,0.060997517241457765,0.09316893450187097,0.06981828423241813,-0.017615995300032942,-0.014443073849614756,-0.10707670125886554,-0.06239168012870885,-0.004820747124387543,0.035913131360634905,0.0001151091693069492,0.021453831340509218,0.00508880368423712,0.045005998900756065,0.10583437062024652,0.07016676772424515,-0.009389724086104332,-0.014050765999900227,-0.09911107189259111,-0.07535836876912834,0.05090367637745481,0.07756492156544899,-0.007628526067489812,0.03341931234651676,0.025226129817480968,0.06477911046671261,0.04976794728500269,0.0620848054656014,0.0657437625618503,-0.07876314101544651,-0.05865170009897506,-0.04350034629115722,0.021917668192078698,0.05028690905897874,-0.007955907722935678,0.01826687057561286,-0.005785315608733614,0.0381877445403811,0.020268577193453444,0.06928248274608909,0.005403387666272475,-0.06454848124600511,-0.019113129950192115,-0.024131685629284576,0.037677955109710976,0.03536263927972881,-0.00041670076839025555,0.015483781386142353,0.005054221858448105,0.029603043933525794,0.008444763947705224,0.056314130523070806,0.09374780238409137,-0.02658027719605291,0.06855272551563979,0.012580235058728266,0.05563247415723262,0.062462899355211834,0.07670095654301738,0.03272466254277534,0.010447693357509164,0.05563247415723262,0.012580235058728266,0.07140843557088376,0.0933217178407593,0.05261728657607696,0.01907044594641287,0.004773709380469751,0.01478200905609342,-0.0003810345682939615,0.05261728657607696,0.0933217178407593,0.06999816949221051,0.014595104975613763,0.05769586606908912,0.06354863269818617,0.07021178210293774,0.033884949044185285,0.010984299225677419,0.05769586606908912,0.014595104975613763,0.07087390356866481,-0.044474946044067466,-0.029215645207941725,0.07383612816693125,0.09211004196854836,0.047039630441850146,0.02248981106811714,0.004822072096767607,0.01367903538830904,0.0018629537989714505,0.047039630441850146,0.09211004196854836,0.09234191548958533,-0.06394619152993893,0.012041224223847293
0.0498132527554418,-0.0004614032777603554,0.02174499306311262,0.016508508455858724,-0.35320862829324556,0.020945726606160384,0.00528607718858857,0.01814876974246809,0.0015749191425477246,0.07281241129515503,0.007497452272644946,-0.02654019959427005,-0.07506717685864886,-0.06429110032472035,-0.07599407021289517,0.03561240918177049,0.07440110281437662,0.021765889140935784,-0.011842443722934323,0.06429110032472035,0.08274072723877907,0.07192270247894315,-0.0177583786259684,-0.02548015703551424,-0.07665341087465533,-0.039617701398458265,-0.0014326399886362346,0.024659321739442436,5.387286157185608e-05,0.02040180329634424,-0.006061077222751246,0.02857807678702101,0.0314520856644137,0.07105715302085079,0.025183982527219675,-0.014236206847464062,-0.07717033292091091,-0.10108299905427368,0.06595491342541035,0.095347340842923,-0.007368719255057391,0.0408293764314244,0.005799103841194527,0.08689236336981213,0.016364378434091678,0.07122086633138404,-0.01155718574128033,-0.0874682364827196,-0.042990796003361025,-0.03691190836397655,0.02919048446495442,0.04383377165763747,-0.01248713789004206,0.013888524017717811,0.0007510762201044434,0.032403938066765094,0.10800258138018158,0.06704061377531592,0.04988911809744955,-0.04631321264101021,-0.0015297999941850718,-0.032949194047080035,0.04777447710993096,0.04454992817082566,-0.00038696864996329115,0.018603168322865318,0.002286428818429891,0.03753574047923848,0.003151038716942155,0.07199613708283066,0.034230922329177606,-0.05034635079375403,0.0709218801942737,0.05225642532031953,0.06931497193927903,0.08258013499432773,0.023006391983392407,0.0297134494097976,0.004387289137755697,0.06931497193927903,0.05225642532031953,0.06869902727142767,0.08207700295247736,0.05512083520924449,0.03564386143941111,0.00568596984527838,0.019981249368561688,-0.012758136705868835,0.05512083520924449,0.08207700295247736,0.07116719818403872,0.04372022133762739,0.06825072382619081,0.0767420287963675,0.027726652035049364,0.02704062999996583,0.0026669699048708665,0.06825072382619081,0.04372022133762739,0.07273426220224077,0.014184674327798925,-0.056194485062101375,0.06564912107782221,0.08412018682172036,0.04771300562942747,0.02640231046072538,0.005355664031266077,0.021990326268273123,-0.014250812768463971,0.04771300562942747,0.08412018682172036,0.07035469268562174,0.058667331572898516,0.0046984091518307075
0.034829303855132554,-0.014583913022379418,0.048837530249641554,0.02200777984992542,-0.02509760811338929,0.04336339166241402,0.09018942409508156,0.04076069781761025,0.008668509870662273,0.07145789318857174,0.14091327173502116,0.15972421406116327,-0.07433269211444904,-0.06425796258910516,-0.07183400686129379,0.0364935208020708,0.07036450976888076,0.039769581774814954,-0.015427395121999105,0.06425796258910516,0.0782113387469322,0.07385504530500858,-0.015541584281761719,-0.027435962407623794,-0.04908129083721942,-0.11008180393821126,0.029950629179013893,0.04601436131676944,-0.00040533365235085933,0.07488149858169749,0.15632699475958267,0.0794070865989822,0.00637537571698677,0.06702821221275351,-0.0948321437689357,0.09820986356305636,-0.053841016532221904,-0.10300253611387629,0.07030796708484176,0.09242978481322936,-0.007708672534765595,0.07953418119867776,0.018441177259726646,0.08854242434193718,0.038633439068263414,0.07062986627364826,-0.03731216696967449,-0.08153813436456941,-0.010886605919272657,-0.024845443355358092,0.04023861638703421,0.03631287246317224,-0.02557315975447238,0.035648568506888544,0.11688359648721812,0.0329441395317807,0.048934136908926236,0.06639441793222782,0.07004913689572558,-0.0004964291042009626,-0.03181538367130644,-0.05290505605477341,0.04724606090589516,0.05210234480618365,-0.000238337874801862,0.04421764020254599,0.09843689453936938,0.046306188675257216,0.02798117096991367,0.07066174715852028,0.04648555843400048,-0.03225780559620172,0.06643966467898818,0.017704789943218856,0.06943729002400142,0.07816350191500575,0.0680241534300532,0.06097189406528791,0.01432704412718785,0.06943729002400142,0.017704789943218856,0.06749346630507704,0.0719022386166138,0.05881614122220091,0.0431052994286514,0.006925711054725321,0.04920797744575165,0.026725934811394073,0.05881614122220091,0.0719022386166138,0.06564826620723344,0.021703874115616743,0.06505638135151263,0.07452779927894944,0.053238420650412746,0.05353566469421624,0.021697396027025216,0.06505638135151263,0.021703874115616743,0.07274935752441347,0.03375593732947471,-0.04950369622459151,0.06132938790274963,0.06718347930143373,0.057573061390445324,0.040786476663488246,0.008091585181017913,0.050707662391604326,0.08530439044021422,0.057573061390445324,0.06718347930143373,0.062371260286666556,0.0719873313216845,0.028539376545504938
0.08841327162910251,0.006535864041012216,0.04079256608774976,0.02054141546583874,0.046776823050037705,0.01988914709590257,-0.005041909655710096,0.034046223283780146,0.20091837323453104,0.07595876278368993,0.10259659105813194,0.026056991814860455,-0.0723859545640761,-0.06155012972595877,-0.07277723326562312,0.033701931165770964,0.07442470029459927,0.024551767907083525,0.0030420466439936926,0.06155012972595877,0.07923830359335234,0.07170746407460231,0.0037149488961786253,-0.027890065024048442,-0.1406863520137855,-0.06726212077060904,-0.015352863520421211,0.035447455407264634,0.00034004867153515617,0.023294775320091263,-0.010775929546024172,0.048519272557169354,0.3370557728868123,0.07175638750433333,0.005093109332206045,-0.019304314405173842,-0.07074952480604939,-0.07121670794521746,0.04568984928268465,0.06998630991933916,-0.0072453739569362675,0.036332763058110014,0.012816033315277354,0.0612188807482359,0.051286307396659805,0.06924592102597332,0.029423371329677983,-0.09138965304961538,-0.08704781859653113,-0.04052074406721529,0.016157954675602427,0.03449497344908348,-0.0062964691176193065,0.021244825515510348,0.00434405915617666,0.035572034591815106,0.019399914673298567,0.07074965719791394,-0.0007106343826028439,-0.0394428664007639,-0.04121090771371278,-0.061536220446563705,0.06027717970814003,0.07044843772541629,-0.0002614247742092878,0.028597298827566373,0.005535570315693514,0.05386078471234698,0.017267672355143256,0.0658843623322821,0.03798402343774019,-0.05080295666398526,0.0625779291151232,0.011149397146667878,0.05282863686600719,0.06438609369615712,0.08218246820132659,0.032237143093007556,-0.01234397088457754,0.05282863686600719,0.011149397146667878,0.07233107017173958,0.09619877235725689,0.05494139664182742,0.02783481163870653,0.0048354892019093435,0.01689607141615758,-0.0018352418617265552,0.05494139664182742,0.09619877235725689,0.06901513409373454,0.012381755795170911,0.058944469486283554,0.07309360509441364,0.08455384307129259,0.036168903484660654,-0.004949718117071381,0.058944469486283554,0.012381755795170911,0.06907819905461039,-0.026765086796329267,-0.0532141428698505,0.07770198454530113,0.10398258474754392,0.05315406134803655,0.030120609055779787,0.004826725747181251,0.016926913611502684,-0.00271935151523954,0.05315406134803655,0.10398258474754392,0.0675010867896305,0.056484579908286064,-0.00683830182303772
0.10806127687545401,0.008176234055803014,0.045903533525555325,0.017039564717544135,0.0420770717361312,0.024035727652382755,0.008051199549322091,0.038311930378777385,0.2513448314359823,0.07283533608176859,0.09132176814538195,0.0662876204523811,-0.06914481956231174,-0.06453424619629035,-0.0566448024144736,0.04698788734859423,0.05524848207738635,0.02639697255850387,-0.0018467661750405863,0.06453424619629035,0.0616736560226406,0.0726778022891441,0.001344093610298393,-0.029665272085328567,-0.12867438597127673,-0.059753547870673475,-0.019011939926690067,0.02607746089360625,0.00047400725232550655,0.01843889342812555,0.0037416592322294436,0.04310299232583685,0.4173868996845194,0.07121125181846231,-0.005897976318219236,-0.01876862443889412,-0.10397248641191903,-0.0865115393395697,0.06264462479832278,0.08692153785384113,-0.008177729615789544,0.03613392236504617,0.00962651784610312,0.07436653227848476,0.004217630142914326,0.0647930214108098,0.06518335452796033,-0.07224264627268849,-0.09514100798934358,-0.03714787069142563,0.006161553571185706,0.02831039671209079,-0.0026190537248528614,0.015035718319057617,0.0009540672776334892,0.03261108283341747,0.042853575130251634,0.06669763039764369,0.009833895381259125,-0.03696743193871126,-0.07749513132874662,-0.0922323337108526,0.07967759878446819,0.09416321119895764,-0.00023055666202202832,0.03931909171823038,0.03453715379809996,0.08072816031708331,0.01764578379204315,0.07372088477396552,0.053368549281730154,-0.04292968984897649,0.0812174326411433,0.05273313323126957,0.06464088762571234,0.0738266210780257,0.021261059165222775,0.03174562653951698,0.009085620884224963,0.06464088762571234,0.05273313323126957,0.06929536107010117,0.0806363544391281,0.055158879042155905,0.03773040843413714,0.005791549851678887,0.018359303371236084,-0.0007308269127370649,0.055158879042155905,0.0806363544391281,0.08728529411357211,0.04563411954068586,0.06686061259965108,0.0774104805450654,0.026022750520399218,0.035601832449254696,0.011300721792660541,0.06686061259965108,0.04563411954068586,0.0699540839300851,-0.06749872098432393,-0.04579355147513275,0.07554334670443474,0.1035511408666129,0.05417013288985343,0.02491487458468314,0.004939486370199397,0.01914867334229552,-0.001107830475451544,0.05417013288985343,0.1035511408666129,0.07231465173486275,0.048110906899792055,0.012675843239118462
0.07508010638610331,-0.06207779539685961,0.1299969019253918,0.06469620273724162,-0.015694570065996626,0.09610313032836658,0.031228794280056246,0.10849779686894181,0.0031530655784203425,0.07757902323933694,0.12313709711299052,0.16940095875491717,-0.07166119802866198,-0.06082069211124879,0.004643812383461472,0.04311362620961406,-0.004805890077885378,0.09034129972583972,-0.010429556348052663,0.06082069211124879,0.005056084148297812,0.06171757268084333,0.11830179041882098,0.1061866317651426,-0.095185324772727,-0.18471728455646053,0.050027334805217885,0.08240695803910414,-0.0004034800636841369,0.13059275506870266,-0.027089710926955324,0.133245103971377,0.06418029104498015,0.06281069648509156,-0.037930678615591705,0.06651551554978984,-0.02911146492460941,-0.08621840837261145,0.07521683412053658,0.08335192038723611,-0.009852308973651904,0.13708347974820162,0.03972390461413468,0.07411455278901388,0.0011809320199466936,0.06812150418873465,-0.04097560118492554,-0.08158749310992759,-0.020487468251311283,-0.038827367542609924,0.09525603094491446,0.05154332621644973,-0.03873848556535987,0.08455775835999639,-0.003227593714092939,0.07798796918136723,0.039378962980836894,0.05807289768866107,0.1366118742626701,0.1427109699145398,-0.04550297400837178,-0.09257961413917165,0.05180364989313137,0.08475565743498123,-0.0001493377587456651,0.11071187171705711,0.07773865864833156,0.08103212432801483,0.0010083356917047813,0.07287075115920431,-0.025578451473874934,-0.05266276479143961,0.06921267031674333,0.03716940999422951,0.06467391211140756,0.06760187480210324,0.030178984765737174,0.08079979858213127,0.030394146603362836,0.06467391211140756,0.03716940999422951,0.07285653758298699,0.059676139919654814,0.07799136393257848,0.04506705720975259,0.011065117863052542,0.08185994333799322,-0.030455544957726552,0.07799136393257848,0.059676139919654814,0.07329650041914913,0.028708483279377264,0.06761601734809806,0.06966610806123878,0.0418323113027175,0.08036386148569635,0.04086342040055448,0.06761601734809806,0.028708483279377264,0.07177863348403024,0.01905399248445278,-0.052333278935150065,0.07585658972292607,0.05214132974903161,0.0677096678886082,0.04287192658414984,0.012261549603305517,0.07594004710419297,-0.0034243532961162728,0.0677096678886082,0.05214132974903161,0.06791078836331117,0.06416685513775104,0.05468670201221326
-0.06553989307060988,-0.02552825179370172,0.014717473409840958,0.021937031036231118,-0.004320807231060849,0.012698946334188251,0.008376645224112063,0.019669411207886747,0.11976162799344985,0.06252503565921255,0.11022293856228153,0.049928952955072124,-0.0697998526561705,-0.05365882163647912,-0.08741007183840555,0.015638541514749624,0.10253470158252305,0.014392143383518803,-0.0011952804689539362,0.05365882163647912,0.09517022698800467,0.06347006338500305,-0.05532413792665201,-0.015228242069089603,-0.08534292844507146,-0.057205557647501654,0.009893193536051262,0.024733938557828954,-0.00025764429555289164,0.024985114285958145,0.10005252573172836,0.041265009361655676,0.1806414484965995,0.07295781802039444,-0.015335914061512381,0.03531161476689684,0.04383788674085674,-0.044560676653191904,0.057952180219724536,0.0452055536101366,-0.014687266549225217,0.028604986688324376,0.048654537292255086,0.04788427600656182,0.0038802241515504977,0.07371165337539684,-0.005403210777085018,-0.05526703805780984,-0.02978719802124278,-0.03254429212828161,0.02732018975450311,0.031456089311550306,-0.013255526595615408,0.018192200973558635,-0.0017863425799630153,0.02856972920914401,0.026928272606367803,0.06847617400878415,0.01493419130200878,-0.030982184579188096,-0.06152433126536205,-0.030569059611430725,-0.015097602297833876,0.00943766467013994,0.0001318106610423236,0.00909869639692701,-0.007220321444738322,0.026756169401400305,0.20166614765596874,0.07467312923454726,0.030648773895984263,-0.04745500640149765,0.04052275577954667,0.05565409227050938,0.04208388857503321,0.03554223874479047,0.013115351046931616,0.022693848601190995,0.018265108581180172,0.04208388857503321,0.05565409227050938,0.06493694529439982,0.09005765201328444,0.04746212457386541,0.015762232727569023,0.004462074400647027,0.01679302976324461,0.008556594979759602,0.04746212457386541,0.09005765201328444,0.0417188931813488,0.06237748010752857,0.04330987769652705,0.033742790185454195,0.01233194710934186,0.02054920765524646,0.011368535722297079,0.04330987769652705,0.06237748010752857,0.06912838459159827,0.11536173674911156,0.028030987840805766,0.06597746649685286,0.10058772985111568,0.04564480998308846,0.011669550985590891,0.004284727187366847,0.018257285096685585,0.015257987635644734,0.04564480998308846,0.10058772985111568,0.06918123688924654,0.15819778015839162,0.17585649711163157
0.015402798652405765,-0.005869427634363129,0.013794717726227671,0.014688949040535533,-0.01761447776623806,0.006841282920970459,-0.001708173408726757,0.011513324237400898,0.0,0.06998756985315105,0.019865994544870615,-0.023232682151243956,-0.07555925996490774,-0.052962521757384334,-0.08682963244097194,0.017025870833816327,0.1031929036930959,0.008989266646065591,0.00521500067597433,0.052962521757384334,0.09453825691814063,0.06994066426380308,0.07139439681324676,-0.01724910851305714,-0.004055996420235823,-0.027712118256940716,0.026001075617958447,0.03981135388184865,-0.001397796151595414,0.010959404934709989,0.0014967249963942903,0.021844268967619533,0.01742695546887973,0.07061035318617968,-0.001499576140551387,-0.0177739586198806,0.15514076391743986,0.0157108888101002,0.06659926375930218,0.02381135892161055,0.04787311065276874,0.021715798866788212,-0.006610985064175429,0.05502912083019116,0.5606064969020315,0.07754574855504756,-0.05429236510343463,-0.055515741961410126,0.16003326863574457,-0.010132499194690791,0.06807970996430067,0.03959514801855828,-0.10609360886976084,0.01692485642322828,0.002029934508211315,0.055738185497595086,0.05356697839561573,0.07669878923512406,-0.010265172406539742,-0.0005827419747708595,0.05064214008028672,-0.021268747534694234,0.03223338226560318,0.024137645151562383,-0.00040447212664542804,0.014408872210874852,0.030565973850625358,0.02532531897116807,0.0022687511784816434,0.05888466503817848,-0.16316972572331467,0.047190960755504385,0.0708102227608439,0.08323830737921545,0.050236047544461135,0.04153394074779145,0.0104677510029024,0.019599985252619533,-0.000646692628714816,0.050236047544461135,0.08323830737921545,0.06730875481851682,0.08664070451200034,0.04447838827536466,0.016400331110823545,0.004346476331368002,0.007823001435439708,0.00735521748598715,0.04447838827536466,0.08664070451200034,0.07478010788871338,0.08456308430616231,0.053604610491395324,0.047913785725612286,0.011258845312019901,0.02073494197988644,-0.008317335242386063,0.053604610491395324,0.08456308430616231,0.07560738629771288,-0.09911599764835209,-0.005471090850976582,0.05895810820475391,0.08428889244182798,0.03648218907751887,0.010534289106874312,0.0040868370421676395,0.007993671321872552,0.006898621873384933,0.03648218907751887,0.08428889244182798,0.08270178177510842,0.02435029253461304,0.018611102437454282
-0.00715047361713294,-0.03913823120793943,0.021934273795188742,0.03112596867049376,-0.004200246434297157,0.040432824757088544,0.027162555434438417,0.030155843408291534,0.020486858026419995,0.06976206833864979,-0.05401185843900419,0.005923973602264671,-0.07192467320933489,-0.05616769227554245,-0.07882384849388062,0.01773258570314557,0.08833271521121028,0.03518871410947895,0.00032618785694093794,0.05616769227554245,0.08582172964116794,0.06861110373660766,-0.055480179583179384,-0.001164662335822208,0.05601057248717154,-0.01614475246344604,0.08768341966981828,0.07229907187310963,-0.008091114333320224,0.08071237189880988,0.05769640375205597,0.07366542182375159,0.0059505827964666256,0.06548737811930612,0.06549959785842265,-0.0021334181710868606,0.04403607392182702,-0.03385665827093529,0.07751878857537184,0.05940162306290759,-0.025857460001143962,0.055965055597317945,0.05938288471624846,0.06405162072874054,0.04639386527101782,0.07183061290130212,0.06306379797581244,-0.07121756529392187,0.048423244052129555,-0.060364711957906964,0.05863397894960583,0.0700793523216976,-0.015337491593739563,0.07636855283259517,0.07277313044678539,0.052992502268213906,0.02634913897212805,0.06860829249959345,-0.020308719522688676,-0.045872971798613264,0.010796279280181837,-0.03902234955497965,0.04372643254017862,0.04037805255316573,-0.0002990578918324446,0.03973852127831753,-0.04813539747653964,0.0343552483083042,0.012730169998179972,0.07203103851544389,0.0037871934592856697,-0.04584349983508141,0.05551047215721884,0.041195682648698,0.06112381244189544,0.0626366019057864,0.025734746325296574,0.072743632076246,0.06759176944741561,0.06112381244189544,0.041195682648698,0.06739248564652703,0.07835155206932407,0.059556444473133435,0.0344477753086663,0.006435635089523403,0.046559153276494424,-0.005866112032235454,0.059556444473133435,0.07835155206932407,0.05784572919495234,0.0467798571067691,0.06641527745173076,0.06975824652295567,0.02521631510624807,0.06997723615523682,0.04725962645405846,0.06641527745173076,0.0467798571067691,0.06921237066833653,0.07416508244158602,-0.023837808458600812,0.06319269646352334,0.07378558475717598,0.057458845689743764,0.051240172942568794,0.007352959130472069,0.04755016423036381,0.022157022032015455,0.057458845689743764,0.07378558475717598,0.0650343181823352,0.0740223671639496,0.006388815573007134
-0.007518964431723091,-0.02383664974260898,0.015167075722232729,0.029898705620510873,-0.004768802605166149,0.02280636317816193,0.020656306795739248,0.01836603890445088,0.0023623787138215874,0.07004014661152146,-0.012844327958671345,-0.02821672137453791,-0.07318529919886928,-0.05770393415819517,-0.07768714229040677,0.028259332029581547,0.08474112952595292,0.026407692114397707,0.05497355649003215,0.05770393415819517,0.08458410810479314,0.06757446598494242,0.0175269507495116,-0.027803879339764827,0.05041226690995488,-0.03438641554117702,0.08212700326752868,0.08768968640087202,-0.0035581259637975514,0.05384139750086461,0.11000514924860678,0.06899731285121836,0.008076288353659648,0.06591330909421898,0.015880669493675205,-0.021767025771513484,0.05115661943800496,-0.04344961477103777,0.06794206988027242,0.06000112662380022,-0.01765939487664099,0.04818216544296045,0.0009858411197259961,0.056138644210951806,0.03694638701109768,0.07467848904336674,-0.01306582973650459,-0.07500666489439108,0.0626516575292348,-0.019307269406164177,0.05420877318733826,0.032466278192591125,-0.04433399069117872,0.03875346130787048,0.04072047682110298,0.0443817791981975,0.10568619856804158,0.07897291203545112,0.05714434935215001,0.052255164047468716,-0.0035153226513018883,-0.028485383699117146,0.02202362830995525,0.027395582738575567,-0.00020634380325922818,0.02184545763951721,0.06402008573775211,0.024932391163006856,0.009453099639410007,0.07318103079723831,-0.014091476138614552,-0.052836410500151955,0.04899633651058839,0.04387190968569702,0.04551435165397739,0.045372028042453674,0.017993803880923573,0.0475975167206032,0.07423859726526635,0.04551435165397739,0.04387190968569702,0.06993920912678099,0.07892862826390218,0.05755999879763812,0.038281622212485496,0.006174424343607699,0.029113039687656977,0.07664767211508486,0.05755999879763812,0.07892862826390218,0.04706453327388051,0.05400579982410721,0.04477490533528332,0.04204371480181972,0.014725389681043158,0.04063175628487671,0.08387397891877504,0.04477490533528332,0.05400579982410721,0.07155156910402571,0.02587817913886386,-0.03635332444472674,0.06987738904058041,0.08368866611673648,0.05481942378349239,0.04154352145145369,0.006185069711429296,0.032646672600924936,0.11531688140866105,0.05481942378349239,0.08368866611673648,0.06877222478646154,0.022858549421962682,-0.01563778683355331
-0.0733417853870758,-0.04828839887188415,-0.004022482080945897,0.022721960183637358,0.0006243153581243187,0.024992645514003018,0.01569567528194065,0.03720600931301836,0.13394558215635402,0.06744434353935108,-0.1058951395642892,0.029112520114442073,-0.06898699987937926,-0.05635556331762315,-0.08266956908937056,0.01733807563101097,0.0923335225795994,0.02028325251375772,-0.0004347688079553303,0.05635556331762315,0.09000886842629377,0.07475368311462827,-0.07880866348436814,0.021559407456827405,0.06506738744743384,-0.011319382838977625,0.08026836183867582,0.05466147229817582,-0.010564377237734311,0.04361646788949601,0.042954137639710635,0.06743581347777781,0.022526211469713772,0.06364351594387173,0.047717201047902946,0.0028498015426894688,0.047756011558051197,-0.018419988952298617,0.04477497039415934,0.03276660148698896,-0.02745167928279186,0.03256883536499147,0.020702823047755583,0.03699631372643034,0.058878019553559,0.0726868101015362,-0.027913316960347306,-0.06917972381786051,0.007625609579704992,-0.03535270646050305,0.03266317943290057,0.03852215513782268,-0.014588945202072559,0.03752209376937475,0.05698024534451267,0.03103515806721769,0.03271926756792253,0.06924617822224131,-0.03773727238947476,-0.025944870038677497,0.004570661510383666,-0.021726140241143603,0.024071240018992305,0.021941644590161687,-0.0002956926440461184,0.021168516907176266,0.09362334690954384,0.01901623066328311,0.0010083356917047813,0.08110811045203015,-0.023505693718530375,-0.04078882186404688,0.03383277216180847,0.01683461455008601,0.034932943576526994,0.032301140234158886,0.035990938080883925,0.03733327344690795,0.07821855087081316,0.034932943576526994,0.01683461455008601,0.06479936671696117,0.08251911913324574,0.053905669202706286,0.02243941187588418,0.005530827466333268,0.021293635006932318,0.018706687262937217,0.053905669202706286,0.08251911913324574,0.035148514395229216,0.020961749208743708,0.03791591264624836,0.03409332485808461,0.032126729439386305,0.03659261036658002,0.07295747585799538,0.03791591264624836,0.020961749208743708,0.07978783323492465,0.08340409753453612,0.018871681686522156,0.06378441368048253,0.08046274731257448,0.05763317362102155,0.03683322820040225,0.006763234665569104,0.02708655206855525,0.019790377668705894,0.05763317362102155,0.08046274731257448,0.06145960654167189,0.08062940486271038,0.03204225367659907
-0.05247286939985138,-0.07763564202738074,0.015663973988159136,0.03751239999087403,-0.0015121452530006425,0.05821544061110274,0.049608313780818925,0.05981793738816052,0.01103088858448386,0.07023250157517472,-0.0946146413236628,0.07573087114319424,-0.07154364930036036,-0.05865442582073169,-0.08143597438432817,0.018900297811824354,0.0873908644207526,0.03447081265838769,0.039763768273956925,0.05865442582073169,0.08866575675024888,0.07333945106111425,-0.07983008698429388,0.020033870004329817,0.07488210844924371,-0.017452550838105783,0.10104211747595657,0.08470373622652838,-0.008625132527795924,0.09303172802113124,0.02544340538617553,0.08488845706360473,0.004249670159793748,0.06176375536093104,0.06481275857227249,-0.00033285995714506944,0.026767686453988568,-0.048305191536849576,0.10231889797453401,0.07999552790334367,-0.023921313342143563,0.08384492118702845,-0.019137062427709683,0.08454326192256437,0.060058951573505694,0.071702858584064,0.07669242130404649,-0.05744516412704994,0.003326529926700843,-0.05360045917713261,0.042853059322877425,0.05474492978252824,-0.012624129051652493,0.06675180212646098,-0.015691390903114857,0.047054352822923556,0.007817886818984356,0.06916206407903214,-0.03591407738816382,-0.016524536809354895,-0.030440083975717853,-0.0423680901989109,0.010568321608483713,0.028260232784916958,-6.65720251995196e-05,0.042947645365448026,0.000481332692902005,0.03708350250172487,0.00554582153725161,0.07104151173879095,-0.05499393730209926,-0.04041225415851369,0.058125708837989655,0.010715698672925295,0.06733093612024019,0.0729190488755855,0.10898213736340077,0.08027823982623988,0.001091548352732961,0.06733093612024019,0.010715698672925295,0.06964598231607821,0.08422203009569057,0.05911791854602193,0.035269515835451036,0.005942971966921324,0.0531121996539528,0.03026525104130149,0.05911791854602193,0.08422203009569057,0.05666846350354927,0.011457353488248629,0.06084442668562961,0.0676640368083149,0.09432113395925983,0.0840123846803196,0.011458928634967497,0.06084442668562961,0.011457353488248629,0.07335541058938361,0.026148491772895823,-0.04631368302024242,0.06780829687742965,0.07237893634908361,0.06050102692867606,0.05233872179936904,0.007892731485849324,0.06492181777328365,-0.01651700778499391,0.06050102692867606,0.07237893634908361,0.06946606265140012,0.0631559861330504,0.005211238059872155
-0.07271091124368886,-0.04159873373828515,0.0013250620424704199,0.03138044007910507,-0.00023873099521436232,0.012177366014096705,-0.00040672381670346495,0.03205165031424489,0.0023623787138215874,0.06502394486984092,-0.01854821223129391,-0.026115600319673825,-0.07073187792759501,-0.05825654664269617,-0.0697781477768865,0.03228269163330159,0.0753919933670939,0.021747934987648737,-0.0021729540319814253,0.05825654664269617,0.07597296310436205,0.07341004302572836,0.00016345062980629093,-0.02886426558413832,0.08611630584120183,-0.03815206210414503,0.08950328323116075,0.11969639303786946,-0.003494967971180892,0.031428641547121904,0.018034877193904925,0.07519434276927117,0.0029752913982333128,0.06627953926158178,0.009817358689515011,-0.024677602358283986,0.15873398354397011,-0.07359958110930488,0.12957344153589395,0.1084822258232445,-0.019882162812538875,0.07378616745372787,-0.02458822368491276,0.10706293385512837,0.004386322088422947,0.07150394344690585,-0.05153580741341732,-0.0631039014791927,0.04205322454925938,-0.022694022455374926,0.032534193792490514,0.035307095778512834,-0.02263688541910962,0.018090379322486635,0.04467884631994091,0.026636378585799557,0.03503568831126728,0.06940205849348853,-0.03502768655931383,-0.032357038727290954,0.02500959470856855,-0.02881572275270835,0.0353661346805979,0.036518960443451216,-0.00032755385528847965,0.024824383216615984,0.012635530999605647,0.02778667885930184,0.002520830973553724,0.06811398051036942,-0.05654561187783833,-0.040737833608102805,0.08985180839742875,0.03443860614117277,0.08185790211322783,0.09710435726411078,0.04122647527548261,0.05572434700883034,-0.010200633445772567,0.08185790211322783,0.03443860614117277,0.07321962826344165,0.07445256419437053,0.059700622585136046,0.058352516231686254,0.006789056966538616,0.023243665722147228,-0.012303142861302399,0.059700622585136046,0.07445256419437053,0.08055269000886249,0.03323934673325553,0.07175929868155122,0.07851981140274225,0.03834407171486662,0.04734141764909623,0.03155162692246334,0.07175929868155122,0.03323934673325553,0.07427962003176312,-0.011939612644280211,-0.05095766132684505,0.07740577640747907,0.07673032752782523,0.06323055561562321,0.07531090017471295,0.007781023455577558,0.025606057100307868,0.009567645584488856,0.06323055561562321,0.07673032752782523,0.06953297545896074,0.01742956086176645,-0.026889677569379863
-0.04113482067038762,-0.07963484626364706,0.029884646050011263,0.04196050831643639,-0.0028125333219620676,0.06376084991175227,0.013255665488859312,0.06135831588839817,0.016546332876725786,0.0634343573260926,-0.06465294291822571,0.0639675312536226,-0.073317166292042,-0.0611301587241798,-0.08143597438432817,0.027271671345135286,0.08385158948637145,0.04325545195216563,0.04400065038300688,0.0611301587241798,0.08866575675024888,0.07205749459621164,-0.02354489907545986,-0.02240192464741752,0.08491364593865137,-0.03650604638146241,0.11831159097563988,0.10099613733281106,-0.0048281943444732954,0.12382848274387397,0.019157344311824677,0.09939705007718408,0.002550498477713167,0.0657318129624445,0.059452911786525,-0.0004407378519734238,0.03797818656653865,-0.06467799004091913,0.12685339778951163,0.09558214767970769,-0.02214973647766357,0.106495488572625,0.10078852321492596,0.10481543729834893,0.014002514394198293,0.0719661864723802,0.07645075186786945,-0.04930627160067393,0.024786145994447034,-0.05198573615557766,0.14157186401327201,0.07181664653902896,-0.04300122775590585,0.09942648923887862,0.008180634020497174,0.11590764446190925,0.022584997936798187,0.07807716248565959,0.13690986178010442,0.13588384168630574,-0.026829657244607525,-0.058334473720618354,0.038244114886850686,0.04754858267377708,-0.00017497015073777885,0.06830265666527877,0.1439248439723737,0.051058393050035615,0.012604138356352162,0.07318182989459683,-0.009814828911566712,-0.036475051489631365,0.07105043149436491,0.020607998143648762,0.08770262146690065,0.0936942360835352,0.07381386213594669,0.1237987352118173,0.07035860261047905,0.08770262146690065,0.020607998143648762,0.07278803004828065,0.07799735693556734,0.07052925571717591,0.052258184172481965,0.007655960199468015,0.06375783896855583,0.029116897716654846,0.07052925571717591,0.07799735693556734,0.06930908900182643,0.02101382749128157,0.07672457697841512,0.08513267793326997,0.06484878780755748,0.10619721727299364,0.0754210335818549,0.07672457697841512,0.02101382749128157,0.07274688817855136,0.03848820074074352,-0.039021807812101246,0.07222320415950591,0.07010947700318214,0.07603059443577356,0.06704476605544932,0.010239728388758189,0.07576110073251159,0.005438496768986186,0.07603059443577356,0.07010947700318214,0.07017961224059725,0.057229235036217976,0.00663529997316925
-0.06159800645311596,-0.04590474439599135,0.017273005587712522,0.0346807282080278,-0.002820090503062627,0.05140408476446711,-0.011222712619619293,0.035369413511521966,0.02915214060375737,0.07489900458037334,0.026681089067876432,-0.0013673748020400593,-0.07057541968473607,-0.05337144684729157,-0.08508821518067357,0.017641277844627448,0.1003485181235042,0.028138054884432183,0.008365628270983345,0.05337144684729157,0.09264223884542001,0.0684339247345659,-0.022839582293472317,-0.03408454452285459,0.07046103065919421,-0.02906498764903223,0.09511782678454467,0.08569398277050905,-0.004875442357472227,0.0975669436727121,-0.011823912909257835,0.0799112860724099,0.009350667115220083,0.06989850492273236,0.05164089054882548,-0.005222757117883075,0.0401681297073846,-0.06320760578885923,0.10082361150185097,0.07892860491711738,-0.01801423749332703,0.09017756999355449,-0.05741118728312886,0.08330774826465952,0.006242088191443885,0.07763770647321455,0.0513878824067986,-0.058409407177786636,0.01602797226005884,-0.054336106112421304,0.077247625303573,0.06227838195884628,-0.022448365701429513,0.09173756869358728,-0.040172391658527616,0.06324413647879883,0.022005902233763194,0.0676749931599747,0.0592527528688673,0.007809646913597085,-0.019836488098996623,-0.049169684874503836,0.034715050009800054,0.0424564720104904,-0.0001884278124537386,0.05130502508977677,-0.037304946838118566,0.04303673173589396,0.004159357897230478,0.07103380838444859,-0.029648507107743256,-0.03887707315732087,0.06049356989924397,0.025544037512412264,0.07470750820372282,0.0771741587801359,0.050726613397847016,0.08804856937440513,-0.08059335303163773,0.07470750820372282,0.025544037512412264,0.06875154054837454,0.08208903417382761,0.05634153692289159,0.03567922621850211,0.005811039081002282,0.04255487308175611,0.005507006640133042,0.05634153692289159,0.08208903417382761,0.06091920813106323,0.029229272927089343,0.07214636526653719,0.07442214421558296,0.04383984057928753,0.09317954570115206,-0.0741101527791665,0.07214636526653719,0.029229272927089343,0.07144182182874076,0.05258477618368029,-0.023776665031940647,0.06857982536519411,0.07277281326816006,0.05878151177096005,0.05049429662083642,0.007626905501198919,0.05654694304901903,0.0028701286661522137,0.05878151177096005,0.07277281326816006,0.07731091733495835,0.053599578345972905,-0.001542754996534061
0.07364144622183776,0.0002819861670225972,0.03068906493185038,0.01651903719130801,0.8156588596055826,0.019713027828523442,0.00048800195861635926,0.025613656046854543,0.008668509870662273,0.07598950183114622,0.015002053006571875,-0.0018534953815107212,-0.07082646037940388,-0.05416720520336258,-0.07688895143443772,0.019937197577388054,0.08934660107135795,0.01294892943034781,-0.003911139256006748,0.05416720520336258,0.08371505487849265,0.0698302780354373,0.019460354909488078,-0.010306115930308743,0.12251956480291054,-0.0006313636786139821,0.08491488611046544,0.07364129507547176,-0.20036713447178148,0.028667094205615515,0.006660012435316948,0.07133949528882723,0.011901165592933251,0.07331188502690442,0.033725126289816776,-0.01628768271711961,0.09616994373026051,-0.02821151780316975,0.08499521965008648,0.06472294488888178,-0.03402444288382786,0.04558858887130912,0.006726958328672174,0.07022918795344733,0.03458450087085771,0.07223991509566191,-0.012890229477453479,-0.08503698056703757,0.06223352958905174,-0.02289759786800934,0.07890955809498491,0.061805324792535976,-0.054416147393016784,0.029077654019215655,-0.00044658564499073735,0.06460479324805986,0.029244655418507792,0.06558048778607574,0.08717757463972167,-0.004849249185043271,0.0002991011502037722,-0.00770790940112775,0.016088382834915545,0.012001796193057766,-0.0005570580142426399,0.010355035925151794,-0.003008451504297662,0.012640418050676968,0.0030249905636978856,0.06612623789373108,0.08737576619074723,-0.012792901259314838,0.058165545378597014,0.03126408650433246,0.06768763070201635,0.07958508709248524,0.03755127868026166,0.04153710579434138,0.004814626046274498,0.06768763070201635,0.03126408650433246,0.07145341522762645,0.09480914013182347,0.05014929042139804,0.018989697931281243,0.004478420169195844,0.011132131227548062,-0.003265171093585215,0.05014929042139804,0.09480914013182347,0.0549857211861614,0.027653885266110335,0.06735797295810741,0.0772314662846724,0.043261878674242735,0.04142809363218063,0.0008362484326084722,0.06735797295810741,0.027653885266110335,0.0748471657729097,0.07921865088729028,-0.0321876487913225,0.07242179436171182,0.08777747268276047,0.05186143906907468,0.03615423796805086,0.005578767596149702,0.018262994473254274,0.00015098341240564592,0.05186143906907468,0.08777747268276047,0.07209131591396861,0.025052388070319103,-0.018231855599527478
0.0587560425811629,-0.013789396524975465,0.023188391907357206,0.019671767278724585,-0.012603120179055006,0.020194800648647197,-0.01626495538246924,0.019353456871809015,0.03309266575345157,0.07129690345762989,-0.07887544771111617,0.02811510830838239,-0.06763368859924415,-0.046043797154184676,-0.08443515894106231,0.008265374248398296,0.11542575370865499,0.010759022681174691,-0.0059750673330760656,0.046043797154184676,0.09193120510236766,0.06843920991851941,0.06238576840053244,-0.01452459745370111,0.09205315492870175,-0.02854639387263997,0.08617330324650378,0.08492221148986678,-0.004497215894319839,0.02373421510627158,-0.01721187768226897,0.07239672856628813,0.0029752913982333128,0.07124927290960459,0.02758555824883879,-0.015107397082199778,0.11221727540889147,-0.03804559840294098,0.07787293511718481,0.055870186676239476,-0.023115596192360817,0.04051490515956667,-0.0012178104392206993,0.06434424217439876,0.02193163254246132,0.0710247832077208,-0.04333896212794189,-0.05639856022330699,0.0730525915818285,-0.014527875989426465,0.060062744816142925,0.04321522665387753,-0.06528165481634321,0.025199592710204204,-0.006028904877768439,0.04917453987116558,0.056462494841995475,0.07025328608475892,0.056188676195924055,-0.021229672362001618,0.016136613704712754,-0.002320842952902191,0.011058994239415618,0.004529124936872307,-0.001271728822354818,0.006548956362477353,0.011191469863526605,0.008688897562958547,0.020796822508985305,0.06796232969487963,-0.09072840054493006,0.03461056826873816,0.0542261654159466,0.03158743312085716,0.05687055591110382,0.07370542329172508,0.031227290198385552,0.03626121764044927,-0.015237893463309105,0.05687055591110382,0.03158743312085716,0.06724966257676811,0.08449094246475009,0.05217499784532051,0.028245846717609355,0.005228324537154995,0.014492668823274964,-0.0036723897858349525,0.05217499784532051,0.08449094246475009,0.05149366296842072,0.035726112866563936,0.055991523007090496,0.07184561387792546,0.027836141616034964,0.03233116317831155,-0.027370352190733294,0.055991523007090496,0.035726112866563936,0.06859961162246028,0.034235754509890255,-0.0755485460826718,0.06757213442849887,0.08423258041107257,0.05117607098666302,0.04117526806703943,0.005736719473801389,0.015573397070754603,-0.012639704251659658,0.05117607098666302,0.08423258041107257,0.06552777601182157,0.04035455793548294,-0.01850773344077718
