series,time,AccX,AccY,AccZ,GyroX,GyroY,GyroZ,Class
0,0.991,0.051758,-1.22583,-0.294678,46.862595,9.328244,27.801527,1
0,0.997,0.062012,-1.266113,-0.30835,50.923664,6.748092,26.664122,1
0,1.003,0.070312,-1.275879,-0.299072,54.236641,3.435115,24.763359,1
0,1.008,0.08667,-1.287598,-0.266113,58.366412,5.465649,22.664122,1
0,1.013,0.053711,-1.303711,-0.266602,59.412214,4.633588,20.793893,1
0,1.019,0.012451,-1.278564,-0.330566,58.648855,2.068702,16.0,1
0,1.024,0.083496,-1.310303,-0.29248,63.358779,14.198473,14.656489,1
0,1.035,0.054199,-1.283203,-0.208496,69.496183,17.900763,8.244275,1
0,1.042,-0.033691,-1.269287,-0.159424,72.839695,21.480916,7.030534,1
0,1.047,-0.081543,-1.257812,-0.157227,75.389313,28.351145,6.587786,1
0,1.052,-0.123535,-1.249268,-0.151855,77.870229,34.862595,6.923664,1
0,1.058,-0.115234,-1.233398,-0.153564,79.885496,39.877863,7.389313,1
0,1.063,-0.090332,-1.240967,-0.187988,81.045802,41.312977,7.648855,1
0,1.074,-0.05835,-1.224609,-0.231689,83.656489,39.282443,7.618321,1
0,1.08,-0.044678,-1.20874,-0.290039,83.366412,38.709924,7.480916,1
0,1.086,-0.030518,-1.189941,-0.370605,82.709924,37.908397,6.78626,1
0,1.091,-0.013184,-1.142334,-0.508057,81.244275,39.671756,4.961832,1
0,1.097,0.016602,-1.101807,-0.624268,76.145038,39.839695,2.183206,1
0,1.102,0.054199,-1.038818,-0.76416,69.572519,38.938931,-0.519084,1
0,1.108,0.062012,-0.997314,-0.850586,60.725191,36.725191,-2.778626,1
0,1.113,0.080078,-0.951172,-0.904785,50.183206,34.267176,-4.854962,1
0,1.125,0.041992,-0.865234,-0.994873,27.022901,26.251908,-7.748092,1
0,1.13,-0.016113,-0.805664,-1.045898,14.961832,25.709924,-7.977099,1
0,1.136,-0.051025,-0.76709,-1.084229,1.709924,27.717557,-8.068702,1
0,1.141,-0.062256,-0.724854,-1.0979,-11.51145,29.335878,-8.412214,1
0,1.147,-0.05835,-0.714355,-1.102295,-24.59542,30.832061,-9.007634,1
0,1.152,-0.086914,-0.699951,-1.090088,-37.305344,32.694656,-9.40458,1
0,1.163,-0.109375,-0.727295,-1.072021,-63.664122,39.076336,-9.496183,1
0,1.169,-0.119873,-0.748047,-1.029785,-77.694656,42.618321,-9.21374,1
0,1.175,-0.127197,-0.786865,-1.001465,-90.038168,45.900763,-9.10687,1
0,1.18,-0.12207,-0.810059,-0.969482,-100.351145,48.351145,-8.732824,1
0,1.191,-0.088379,-0.888916,-0.887939,-121.282443,51.19084,-8.564885,1
0,1.197,-0.0896,-0.900391,-0.830078,-130.343511,51.992366,-9.167939,1
0,1.202,-0.074707,-0.932373,-0.750244,-137.732824,51.099237,-9.59542,1
0,1.207,-0.059082,-0.953369,-0.69043,-146.625954,48.022901,-9.969466,1
0,1.219,-0.029541,-1.031982,-0.591309,-159.175573,41.541985,-11.045802,1
0,1.225,-0.016602,-1.054932,-0.548584,-163.305344,37.717557,-11.977099,1
0,1.23,-0.011475,-1.062744,-0.519287,-166.007634,34.312977,-12.671756,1
0,1.236,0.009521,-1.109863,-0.472168,-169.664122,27.931298,-13.732824,1
0,1.241,0.009521,-1.127197,-0.446777,-171.748092,23.954198,-14.351145,1
0,1.246,0.019287,-1.151123,-0.419678,-172.183206,18.770992,-15.198473,1
0,1.258,0.009033,-1.166504,-0.352783,-170.618321,9.923664,-16.694656,1
0,1.264,0.017822,-1.178955,-0.286133,-169.366412,6.679389,-17.541985,1
0,1.269,0.015137,-1.216797,-0.283691,-166.687023,2.694656,-17.78626,1
0,1.275,-0.016113,-1.204834,-0.27124,-165.977099,-0.335878,-18.396947,1
0,1.28,-0.004639,-1.228271,-0.210693,-164.015267,-2.374046,-18.167939,1
0,1.291,0.024902,-1.276123,-0.188477,-165.229008,-7.091603,-16.198473,1
0,1.297,-0.052734,-1.281982,-0.124512,-163.923664,-2.435115,-15.10687,1
0,1.303,0.036621,-1.256592,-0.170898,-162.763359,-13.145038,-14.748092,1
0,1.308,0.079102,-1.283447,-0.086426,-160.198473,-16.183206,-13.366412,1
0,1.313,0.120361,-1.30542,-0.07373,-159.152672,-20.442748,-12.931298,1
0,1.324,0.146484,-1.240479,0.008057,-150.122137,-33.053435,-12.221374,1
0,1.33,0.14502,-1.248779,0.02417,-152.381679,-40.389313,-11.366412,1
0,1.335,0.184814,-1.240723,-0.029053,-148.282443,-48.396947,-11.51145,1
0,1.342,0.164062,-1.162598,-0.030029,-142.587786,-52.89313,-11.664122,1
0,1.347,0.154053,-1.153809,-0.063232,-141.717557,-58.312977,-11.877863,1
0,1.358,0.125,-1.10791,-0.081299,-137.358779,-63.770992,-12.0,1
0,1.363,0.113525,-1.098145,-0.071777,-138.21374,-65.916031,-12.770992,1
0,1.369,0.094482,-1.054199,-0.109375,-131.59542,-63.053435,-14.091603,1
0,1.374,0.081299,-1.069092,-0.095947,-130.267176,-58.625954,-15.48855,1
0,1.386,0.049561,-0.999512,-0.109619,-117.725191,-41.770992,-18.251908,1
0,1.391,0.019043,-1.041748,-0.083496,-120.183206,-34.129771,-19.251908,1
0,1.397,0.000732,-1.002197,-0.112549,-116.770992,-25.358779,-19.839695,1
0,1.402,-0.020264,-1.024658,-0.058838,-112.625954,-12.664122,-20.748092,1
1,0.312,0.075928,-1.138184,-0.30249,48.229008,18.045802,27.687023,1
1,0.323,0.12085,-1.191895,-0.382324,54.793893,13.687023,23.183206,1
1,0.328,0.102295,-1.219727,-0.346191,56.396947,8.572519,20.969466,1
1,0.334,0.140381,-1.226318,-0.323975,58.229008,3.908397,18.992366,1
1,0.339,0.085449,-1.276855,-0.31958,56.931298,-0.496183,17.10687,1
1,0.345,0.109375,-1.250977,-0.317383,58.48855,-4.068702,16.343511,1
1,0.351,0.066162,-1.248047,-0.280273,59.343511,-7.427481,16.19084,1
1,0.356,0.064209,-1.23877,-0.263916,60.541985,-12.473282,15.053435,1
1,0.362,0.039062,-1.216797,-0.244141,62.480916,-14.10687,14.496183,1
1,0.373,0.000977,-1.18457,-0.255615,63.946565,-17.229008,13.198473,1
1,0.378,-0.009521,-1.172363,-0.287598,64.198473,-13.633588,12.51145,1
1,0.383,-0.022461,-1.167725,-0.387939,62.419847,-13.328244,11.206107,1
1,0.39,-0.067383,-1.12793,-0.49292,59.267176,-7.740458,10.763359,1
1,0.395,-0.123047,-1.092529,-0.652832,54.862595,-3.961832,10.70229,1
1,0.401,-0.160645,-1.046143,-0.784424,47.763359,2.89313,10.679389,1
1,0.406,-0.159668,-0.986084,-0.861328,41.076336,10.030534,10.587786,1
1,0.417,-0.106201,-0.93457,-0.881348,24.526718,17.992366,8.664122,1
1,0.422,-0.082031,-0.897949,-0.898193,15.381679,19.076336,7.450382,1
1,0.429,-0.080566,-0.875,-0.928467,4.854962,19.763359,6.969466,1
1,0.434,-0.070801,-0.837158,-0.93457,-5.625954,14.534351,6.78626,1
1,0.44,-0.067627,-0.830078,-0.913574,-17.656489,11.519084,6.427481,1
1,0.445,-0.127441,-0.859131,-0.95166,-24.442748,24.984733,0.648855,1
1,0.451,-0.019775,-0.824951,-0.935547,-34.137405,16.183206,2.305344,1
1,0.456,-0.033447,-0.824951,-0.952148,-44.870229,8.137405,3.083969,1
1,0.461,-0.076904,-0.816895,-0.934326,-54.412214,3.290076,3.022901,1
1,0.473,-0.085205,-0.815186,-0.861572,-74.755725,-2.961832,3.534351,1
1,0.479,-0.122314,-0.852051,-0.841309,-83.862595,-4.290076,4.167939,1
1,0.484,-0.116455,-0.858398,-0.813477,-89.587786,-5.167939,4.557252,1
1,0.49,-0.100586,-0.940186,-0.772705,-101.938931,-6.740458,5.267176,1
1,0.495,-0.090088,-0.889404,-0.749023,-103.877863,-7.160305,5.320611,1
1,0.5,-0.081787,-0.942139,-0.695312,-110.442748,-9.236641,5.587786,1
1,0.511,-0.067871,-0.997803,-0.61499,-122.572519,-8.847328,5.473282,1
1,0.518,-0.027832,-0.999268,-0.578857,-125.816794,-12.618321,4.503817,1
1,0.523,-0.027832,-1.064453,-0.56543,-130.160305,-12.51145,3.816794,1
1,0.529,-0.013916,-1.078369,-0.512695,-133.885496,-10.366412,2.938931,1
1,0.534,-0.041992,-1.099365,-0.39917,-136.908397,-8.801527,1.954198,1
1,0.539,-0.029541,-1.110352,-0.342041,-138.389313,-10.167939,1.145038,1
1,0.55,0.031006,-1.146973,-0.281982,-143.381679,-13.969466,-0.038168,1
1,0.557,0.032959,-1.154053,-0.265869,-143.656489,-15.427481,-1.129771,1
1,0.562,0.019287,-1.122314,-0.25708,-141.664122,-16.152672,-1.954198,1
1,0.567,0.018555,-1.119385,-0.234619,-141.717557,-20.038168,-2.480916,1
1,0.573,-0.004639,-1.136475,-0.189697,-141.862595,-18.412214,-2.053435,1
1,0.578,-0.000732,-1.098145,-0.214844,-143.496183,-22.778626,-1.076336,1
1,0.589,-0.026123,-1.067871,-0.176758,-136.473282,-23.290076,-0.541985,1
1,0.595,-0.034912,-1.058838,-0.148926,-133.80916,-23.854962,0.358779,1
1,0.601,-0.039062,-1.039307,-0.13208,-133.480916,-25.29771,1.259542,1
1,0.606,-0.019775,-1.070801,-0.121094,-128.114504,-25.312977,1.572519,1
1,0.612,-0.020264,-1.095947,-0.128174,-130.580153,-27.877863,2.099237,1
1,0.617,-0.016602,-1.088867,-0.103027,-126.740458,-28.816794,2.748092,1
1,0.628,0.024902,-1.069092,-0.052979,-117.419847,-30.061069,3.068702,1
1,0.634,0.02832,-1.121826,-0.08252,-118.877863,-33.160305,2.061069,1
1,0.639,0.054199,-1.172119,-0.060547,-118.389313,-35.671756,1.396947,1
1,0.645,0.056152,-1.148682,0.0271,-115.458015,-39.320611,1.0,1
1,0.651,0.100586,-1.115967,0.064941,-113.664122,-41.801527,0.427481,1
1,0.656,0.114502,-1.085449,0.097168,-109.343511,-46.152672,-1.267176,1
1,0.667,0.098389,-0.986328,0.091064,-99.152672,-50.061069,-3.519084,1
1,0.673,0.061523,-0.983643,0.048584,-99.137405,-52.580153,-3.70229,1
1,0.678,0.058838,-0.942627,0.006836,-92.366412,-53.641221,-3.824427,1
1,0.683,0.008301,-0.949707,-0.018555,-89.29771,-52.099237,-3.083969,1
1,0.69,-0.008301,-0.939697,-0.02417,-85.030534,-49.450382,-2.343511,1
1,0.695,-0.031982,-0.965332,-0.002197,-81.320611,-44.969466,-1.167939,1
1,0.701,-0.039062,-0.979004,-0.002686,-75.167939,-39.687023,-0.396947,1
1,0.712,-0.061279,-1.019043,0.02002,-63.068702,-26.366412,0.862595,1
1,0.717,-0.049316,-1.026367,0.013184,-59.244275,-17.748092,1.984733,1
2,0.034,0.014648,-1.064209,-0.512939,-104.984733,-1.48855,2.167939,1
2,0.04,-0.03125,-1.038818,-0.432617,-103.89313,1.755725,1.648855,1
2,0.045,-0.025635,-1.047607,-0.39502,-107.938931,1.137405,1.664122,1
2,0.05,-0.007568,-1.067383,-0.406006,-111.534351,-4.091603,1.717557,1
2,0.056,-0.01416,-1.04126,-0.415771,-109.793893,-5.572519,1.465649,1
2,0.067,-0.047852,-1.020264,-0.325928,-111.977099,-1.725191,1.694656,1
2,0.072,-0.057129,-1.029785,-0.325195,-114.030534,-1.740458,1.908397,1
2,0.079,-0.04834,-1.023438,-0.306152,-115.251908,-0.862595,2.335878,1
2,0.084,-0.059814,-1.058838,-0.291504,-117.503817,0.427481,2.832061,1
2,0.089,-0.029053,-1.056396,-0.299072,-117.129771,-0.503817,3.21374,1
2,0.095,-0.065918,-1.054932,-0.27124,-116.709924,2.740458,3.442748,1
2,0.1,-0.040771,-1.015625,-0.219727,-114.175573,3.473282,3.503817,1
2,0.106,-0.035889,-1.050537,-0.233643,-116.854962,0.854962,3.610687,1
2,0.116,-0.021973,-1.010254,-0.199219,-108.175573,1.557252,4.053435,1
2,0.123,-0.022705,-1.011963,-0.159912,-107.015267,1.152672,4.480916,1
2,0.128,0.013672,-1.00415,-0.149902,-103.51145,0.10687,4.381679,1
2,0.134,0.032959,-0.996826,-0.153564,-103.519084,-2.007634,3.755725,1
2,0.139,0.016357,-0.950439,-0.12793,-98.145038,-0.603053,3.030534,1
2,0.145,0.029541,-0.942627,-0.164795,-96.167939,-1.503817,2.320611,1
2,0.15,0.024658,-0.948486,-0.152344,-93.885496,-2.145038,1.885496,1
2,0.155,0.03418,-0.952148,-0.187012,-91.10687,-3.022901,1.931298,1
2,0.167,0.035889,-0.940918,-0.217773,-83.137405,-7.305344,1.977099,1
2,0.173,0.03418,-0.928955,-0.226807,-79.312977,-8.335878,2.175573,1
2,0.178,0.038086,-0.959961,-0.265381,-78.664122,-11.80916,2.358779,1
2,0.184,0.038086,-0.95874,-0.251709,-76.305344,-13.633588,2.129771,1
2,0.189,0.033691,-0.949707,-0.2854,-73.435115,-16.328244,1.984733,1
2,0.194,0.033691,-0.950439,-0.296875,-71.900763,-16.328244,1.564885,1
2,0.2,0.026367,-0.964844,-0.336426,-74.633588,-17.068702,1.045802,1
2,0.206,0.025879,-0.953125,-0.352783,-72.885496,-18.816794,0.160305,1
2,0.212,0.019531,-0.930176,-0.35791,-71.534351,-17.557252,-0.389313,1
2,0.223,0.005859,-0.922363,-0.349121,-69.282443,-13.847328,-1.916031,1
2,0.228,-0.01416,-0.94751,-0.303467,-70.526718,-10.51145,-2.916031,1
2,0.233,-0.013184,-0.939453,-0.353271,-70.793893,-10.473282,-3.603053,1
2,0.239,-0.000977,-0.935059,-0.357178,-67.89313,-7.473282,-4.648855,1
2,0.244,-0.030518,-0.962158,-0.351807,-71.083969,-6.557252,-5.358779,1
2,0.251,-0.012451,-0.953613,-0.326904,-69.412214,-5.977099,-5.992366,1
2,0.256,0.000977,-0.913818,-0.297607,-63.732824,-6.381679,-7.053435,1
2,0.262,-0.002686,-0.970703,-0.309814,-66.091603,-5.89313,-7.801527,1
2,0.272,0.020752,-0.961426,-0.257324,-61.717557,-7.435115,-9.435115,1
2,0.278,0.018799,-0.944092,-0.247803,-58.618321,-10.083969,-10.351145,1
2,0.283,0.010986,-0.9375,-0.20874,-55.381679,-10.946565,-10.458015,1
2,0.29,0.018799,-0.947998,-0.192383,-51.40458,-12.732824,-10.816794,1
2,0.295,0.013916,-0.966553,-0.16626,-48.633588,-14.152672,-11.10687,1
2,0.301,0.005127,-0.979736,-0.149414,-45.229008,-14.977099,-11.10687,1
2,0.306,-0.01123,-1.004395,-0.132324,-42.931298,-15.129771,-10.671756,1
2,0.317,-0.018066,-1.015869,-0.093506,-29.541985,-12.167939,-9.717557,1
2,0.322,-0.019531,-1.026367,-0.061279,-26.541985,-8.51145,-9.251908,1
2,0.328,-0.018066,-1.014893,-0.02002,-19.480916,-5.763359,-8.656489,1
2,0.334,-0.018799,-1.001953,0.020264,-12.40458,-3.137405,-7.877863,1
2,0.34,-0.015625,-0.97998,0.020508,-5.580153,0.900763,-7.366412,1
2,0.345,0.003906,-0.96167,0.023682,0.725191,3.908397,-6.877863,1
2,0.35,0.018311,-0.955566,0.028809,7.206107,6.122137,-6.770992,1
2,0.356,0.009033,-0.969482,0.040283,14.137405,7.847328,-6.40458,1
2,0.361,0.017822,-0.968262,0.051514,21.687023,8.748092,-5.648855,1
2,0.367,0.035156,-0.971191,0.086914,29.648855,8.549618,-5.343511,1
2,0.372,0.043945,-0.987305,0.121094,38.389313,7.274809,-5.480916,1
2,0.379,0.057373,-0.992188,0.170654,46.938931,4.160305,-5.572519,1
2,0.384,0.061279,-0.988525,0.17749,56.977099,0.847328,-5.641221,1
2,0.389,0.047363,-1.006836,0.227539,69.083969,-3.984733,-6.091603,1
2,0.395,0.010254,-1.034912,0.205078,81.885496,-9.603053,-6.59542,1
2,0.406,-0.115234,-1.212158,-0.218262,83.198473,-14.21374,-6.740458,1
2,0.411,-0.227783,-1.202148,-0.395508,85.129771,-8.328244,-7.458015,1
2,0.416,-0.199463,-1.262939,-0.791992,82.435115,-2.839695,-9.083969,1
2,0.423,-0.036133,-1.277588,-0.940186,79.19084,8.328244,-11.709924,1
3,0.483,-0.039795,-1.199219,-0.492676,70.335878,-2.480916,2.870229,1
3,0.488,-0.120605,-1.344238,-1.256836,66.10687,35.290076,5.610687,1
3,0.494,-0.356934,-1.490234,-1.629883,69.244275,76.916031,7.145038,1
3,0.499,-0.35498,-1.571289,-1.101318,80.083969,108.625954,10.854962,1
3,0.51,0.461426,-1.606201,-0.356689,84.29771,67.458015,8.236641,1
3,0.515,0.401123,-1.388916,-0.08252,87.396947,19.694656,7.480916,1
3,0.522,0.352783,-1.138916,0.211182,89.70229,-29.152672,6.938931,1
3,0.527,0.227295,-1.033447,0.331299,91.351145,-61.48855,3.221374,1
3,0.533,0.078125,-1.031738,0.195557,92.053435,-77.748092,-1.694656,1
3,0.538,0.07666,-1.059082,-0.045654,93.29771,-85.641221,-6.442748,1
3,0.549,0.047119,-1.132568,-0.45752,76.328244,-111.175573,-14.603053,1
3,0.554,0.016357,-1.125977,-0.408447,67.854962,-118.198473,-18.160305,1
3,0.561,-0.01001,-1.074951,-0.254883,60.59542,-121.625954,-21.282443,1
3,0.566,-0.091553,-1.019775,-0.10791,55.778626,-116.0,-24.290076,1
3,0.572,-0.138428,-0.980225,0.037842,54.954198,-99.038168,-26.091603,1
3,0.582,-0.076172,-1.051025,0.145264,57.312977,-50.381679,-27.557252,1
3,0.588,-0.072998,-1.120361,0.095459,58.015267,-26.610687,-27.068702,1
3,0.593,-0.075928,-1.210938,0.013672,56.877863,-10.977099,-25.427481,1
3,0.599,-0.101318,-1.238037,-0.057617,54.80916,0.870229,-23.221374,1
3,0.605,-0.141357,-1.222168,-0.087646,52.580153,11.335878,-20.022901,1
3,0.611,-0.158203,-1.179932,-0.078125,51.618321,23.954198,-17.099237,1
3,0.621,-0.140137,-1.055176,-0.071533,50.076336,49.335878,-13.885496,1
3,0.627,-0.115234,-1.025391,-0.093262,49.419847,60.503817,-13.717557,1
3,0.632,-0.075195,-1.006348,-0.133057,48.236641,70.076336,-14.480916,1
3,0.638,-0.048584,-1.017822,-0.157959,46.580153,75.89313,-15.572519,1
3,0.643,-0.054199,-1.035645,-0.193604,45.641221,79.229008,-16.328244,1
3,0.65,-0.043213,-1.043213,-0.196533,43.961832,77.770992,-17.137405,1
3,0.655,0.009766,-1.063965,-0.218018,42.564885,72.267176,-18.053435,1
3,0.66,0.04248,-1.057861,-0.217041,41.083969,64.763359,-19.022901,1
3,0.671,0.171387,-1.054932,-0.230713,37.251908,38.877863,-22.320611,1
3,0.677,0.196289,-1.043945,-0.239746,34.748092,22.755725,-23.946565,1
3,0.682,0.203613,-1.016113,-0.25,32.175573,5.709924,-25.251908,1
3,0.689,0.194824,-1.006104,-0.243652,29.328244,-9.091603,-26.030534,1
3,0.694,0.19043,-0.992432,-0.225586,27.0,-18.450382,-26.221374,1
3,0.699,0.180908,-1.00293,-0.196777,24.832061,-25.824427,-26.358779,1
3,0.705,0.167725,-1.011963,-0.172852,23.419847,-30.038168,-26.129771,1
3,0.71,0.141113,-1.030518,-0.159668,22.938931,-30.748092,-25.374046,1
3,0.716,0.108154,-1.029053,-0.14502,22.343511,-27.679389,-24.427481,1
3,0.721,0.090332,-1.049072,-0.1521,21.015267,-23.656489,-22.916031,1
3,0.733,0.089355,-1.041748,-0.118164,20.580153,-9.80916,-19.091603,1
3,0.738,0.042725,-1.032715,-0.134033,20.10687,-1.29771,-17.793893,1
3,0.744,0.045898,-1.031006,-0.107178,20.519084,6.618321,-16.473282,1
3,0.749,0.049072,-1.028564,-0.123535,20.129771,14.236641,-15.389313,1
3,0.755,0.054443,-1.022461,-0.119629,19.664122,19.664122,-14.366412,1
3,0.76,0.05957,-1.02002,-0.127197,19.412214,24.335878,-13.534351,1
3,0.765,0.074463,-1.026611,-0.13623,18.961832,25.946565,-12.877863,1
3,0.771,0.086914,-1.028564,-0.143555,18.59542,26.236641,-12.465649,1
3,0.777,0.091309,-1.027588,-0.14624,18.763359,24.137405,-12.351145,1
3,0.783,0.088623,-1.025879,-0.162354,18.442748,21.40458,-12.061069,1
3,0.794,0.126709,-1.03125,-0.175293,19.328244,13.778626,-11.664122,1
3,0.799,0.157227,-1.027588,-0.166992,19.335878,8.740458,-11.587786,1
3,0.804,0.165771,-1.013672,-0.180176,19.435115,2.916031,-11.351145,1
3,0.81,0.178223,-1.02002,-0.160156,19.244275,-2.709924,-11.358779,1
3,0.815,0.178955,-1.012695,-0.163086,18.832061,-8.335878,-10.847328,1
3,0.822,0.166992,-1.012451,-0.148193,17.847328,-13.969466,-10.305344,1
3,0.827,0.138184,-1.016357,-0.138916,17.839695,-16.687023,-9.442748,1
3,0.833,0.150879,-1.008545,-0.125,17.70229,-18.847328,-8.435115,1
3,0.838,0.125732,-1.005127,-0.135498,17.938931,-18.068702,-7.267176,1
3,0.849,0.102539,-1.020264,-0.121582,18.763359,-13.694656,-5.221374,1
3,0.854,0.084473,-1.018066,-0.11499,19.267176,-10.40458,-3.725191,1
3,0.861,0.074707,-1.015381,-0.118164,19.824427,-5.564885,-2.389313,1
3,0.866,0.068359,-1.009521,-0.119385,21.045802,-0.877863,-1.374046,1
3,0.872,0.084473,-1.014648,-0.121338,21.389313,3.038168,-0.290076,1
3,0.877,0.086426,-1.009521,-0.118408,22.274809,6.534351,0.48855,1
4,0.067,0.192627,-1.170654,-0.323486,77.877863,36.763359,45.21374,1
4,0.073,0.2146,-1.232178,-0.321533,81.282443,37.656489,46.381679,1
4,0.078,0.236816,-1.289062,-0.327148,84.145038,37.778626,46.465649,1
4,0.084,0.234131,-1.372559,-0.309814,86.671756,38.625954,46.29771,1
4,0.09,0.255371,-1.420654,-0.331299,88.099237,37.473282,45.610687,1
4,0.095,0.239502,-1.484619,-0.309814,90.534351,37.854962,44.29771,1
4,0.101,0.229736,-1.548096,-0.304199,91.236641,38.78626,42.862595,1
4,0.112,0.137451,-1.632568,-0.29248,92.015267,42.839695,40.954198,1
4,0.117,0.119873,-1.656982,-0.24707,94.419847,44.793893,41.328244,1
4,0.123,0.147217,-1.685547,-0.236572,98.137405,44.816794,41.221374,1
4,0.128,0.154053,-1.68042,-0.199463,100.80916,46.78626,41.343511,1
4,0.134,0.145508,-1.663818,-0.20459,105.740458,49.816794,41.366412,1
4,0.145,0.176514,-1.57959,-0.243408,111.51145,53.335878,40.70229,1
4,0.151,0.196533,-1.534424,-0.286865,112.977099,54.038168,39.412214,1
4,0.156,0.225098,-1.506348,-0.355713,111.938931,55.068702,37.175573,1
4,0.161,0.259766,-1.470459,-0.450684,109.175573,56.122137,34.198473,1
4,0.167,0.282227,-1.434814,-0.542969,103.923664,55.89313,30.541985,1
4,0.179,0.306641,-1.331543,-0.694336,92.748092,50.022901,22.10687,1
4,0.184,0.280029,-1.258789,-0.777344,85.122137,45.770992,18.0,1
4,0.19,0.267822,-1.191162,-0.821533,76.10687,40.603053,14.030534,1
4,0.195,0.27124,-1.104736,-0.857422,66.618321,35.045802,10.335878,1
4,0.2,0.282227,-1.047119,-0.882812,56.496183,28.80916,6.038168,1
4,0.206,0.28418,-0.975586,-0.882812,45.48855,22.610687,1.099237,1
4,0.211,0.261719,-0.925781,-0.896484,34.458015,16.870229,-3.839695,1
4,0.223,0.205322,-0.844727,-0.925293,11.114504,7.29771,-13.10687,1
4,0.229,0.197998,-0.830811,-0.951172,-1.045802,2.625954,-16.763359,1
4,0.234,0.175049,-0.805176,-0.928223,-13.083969,-2.045802,-20.450382,1
4,0.239,0.152344,-0.791992,-0.902344,-24.625954,-5.40458,-24.061069,1
4,0.245,0.139893,-0.774658,-0.882568,-35.603053,-8.854962,-27.419847,1
4,0.25,0.130127,-0.774902,-0.8479,-46.801527,-12.587786,-30.78626,1
4,0.262,0.108887,-0.773682,-0.797852,-67.496183,-20.625954,-36.419847,1
4,0.268,0.095459,-0.781982,-0.758057,-77.366412,-25.740458,-38.900763,1
4,0.273,0.084717,-0.80127,-0.706299,-86.679389,-30.51145,-40.984733,1
4,0.278,0.091553,-0.806152,-0.675049,-95.160305,-35.328244,-43.29771,1
4,0.284,0.082031,-0.813965,-0.612549,-103.496183,-39.580153,-45.480916,1
4,0.295,0.084473,-0.840576,-0.534668,-118.114504,-50.038168,-49.458015,1
4,0.301,0.082764,-0.865723,-0.503418,-125.068702,-56.59542,-50.816794,1
4,0.307,0.067139,-0.891357,-0.477051,-131.717557,-63.389313,-52.160305,1
4,0.312,0.064697,-0.913818,-0.447998,-137.725191,-69.564885,-53.229008,1
4,0.317,0.064941,-0.936279,-0.408203,-143.206107,-75.045802,-53.89313,1
4,0.328,0.048096,-0.972168,-0.324951,-153.114504,-82.351145,-54.541985,1
4,0.334,0.038818,-0.989258,-0.281982,-156.854962,-84.916031,-54.480916,1
4,0.339,0.030273,-0.995117,-0.234619,-160.351145,-87.259542,-54.267176,1
4,0.346,0.029053,-1.016602,-0.200439,-163.145038,-87.78626,-53.854962,1
4,0.351,0.013428,-1.020996,-0.179688,-165.870229,-87.877863,-53.564885,1
4,0.362,-0.019043,-1.041016,-0.151123,-169.145038,-85.320611,-51.48855,1
4,0.367,-0.031494,-1.049561,-0.125244,-169.931298,-82.625954,-50.053435,1
4,0.373,-0.040771,-1.062256,-0.115234,-170.519084,-79.083969,-48.305344,1
4,0.378,-0.034912,-1.069824,-0.102783,-170.48855,-74.717557,-46.351145,1
4,0.39,-0.035156,-1.067627,-0.076172,-169.801527,-66.816794,-42.770992,1
4,0.395,-0.017822,-1.074219,-0.060059,-169.282443,-64.183206,-41.320611,1
4,0.401,-0.004883,-1.072266,-0.054932,-169.206107,-61.328244,-39.832061,1
4,0.406,0.011475,-1.090576,-0.05957,-169.21374,-60.793893,-38.442748,1
4,0.412,0.007568,-1.081055,-0.045654,-168.641221,-60.503817,-36.89313,1
4,0.422,0.02832,-1.059082,-0.037598,-165.938931,-61.145038,-33.78626,1
4,0.429,0.039551,-1.037842,-0.035156,-164.29771,-60.603053,-32.610687,1
4,0.434,0.040283,-1.028076,-0.057129,-162.938931,-60.335878,-32.030534,1
4,0.44,0.042725,-0.991699,-0.046143,-161.175573,-58.419847,-31.885496,1
4,0.445,0.04126,-0.97168,-0.050049,-159.664122,-55.167939,-32.48855,1
4,0.451,0.048828,-0.94165,-0.051514,-159.099237,-48.877863,-33.603053,1
4,0.461,0.019531,-0.945068,-0.065674,-158.648855,-29.129771,-35.656489,1
4,0.467,-0.023926,-0.951904,-0.078857,-159.358779,-18.908397,-36.244275,1
4,0.473,-0.050293,-0.967041,-0.08252,-158.732824,-5.572519,-36.48855,1
4,0.479,-0.052734,-0.992188,-0.125732,-158.335878,5.656489,-36.503817,1
5,0.576,-0.049561,-1.204834,-0.210449,69.137405,10.061069,9.251908,1
5,0.587,-0.010254,-1.266357,-0.217529,75.343511,14.854962,7.717557,1
5,0.598,-0.008789,-1.306396,-0.150146,79.969466,10.824427,6.122137,1
5,0.609,-0.003174,-1.320312,-0.123779,83.732824,2.687023,4.198473,1
5,0.621,-0.02124,-1.312256,-0.096924,85.977099,-9.526718,2.770992,1
5,0.637,-0.025391,-1.255371,-0.08374,84.580153,-25.526718,1.160305,1
5,0.648,-0.065674,-1.177734,-0.100098,79.290076,-34.419847,-0.40458,1
5,0.66,-0.092041,-1.125977,-0.191406,67.900763,-38.977099,-2.183206,1
5,0.67,-0.16626,-1.099121,-0.593018,45.648855,-22.89313,-2.931298,1
5,0.687,-0.019043,-0.976318,-0.757568,14.0,-7.740458,-9.045802,1
5,0.697,-0.058105,-0.887451,-0.75708,-4.916031,-10.0,-10.938931,1
5,0.709,-0.062012,-0.827393,-0.713379,-30.618321,-13.381679,-12.580153,1
5,0.726,-0.12793,-0.837646,-0.637939,-62.748092,-0.40458,-12.78626,1
5,0.736,-0.166016,-0.908691,-0.647461,-81.900763,7.40458,-11.770992,1
5,0.748,-0.1875,-0.988281,-0.623291,-96.099237,17.916031,-10.083969,1
5,0.765,-0.189209,-1.077637,-0.557861,-113.160305,34.51145,-6.160305,1
5,0.775,-0.167236,-1.121094,-0.52832,-122.10687,40.610687,-4.992366,1
5,0.787,-0.112305,-1.142822,-0.498291,-130.51145,42.984733,-5.053435,1
5,0.804,-0.013916,-1.171143,-0.426514,-142.374046,37.221374,-6.763359,1
5,0.814,0.040771,-1.197998,-0.376221,-149.29771,30.122137,-9.625954,1
5,0.825,0.071289,-1.211182,-0.299316,-154.21374,19.0,-12.030534,1
5,0.843,0.076172,-1.195068,-0.180664,-155.343511,-4.763359,-14.137405,1
5,0.853,0.03418,-1.180908,-0.18042,-154.40458,-17.740458,-14.19084,1
5,0.864,0.017822,-1.174316,-0.165039,-152.312977,-30.061069,-13.473282,1
5,0.882,-0.048584,-1.151611,-0.169189,-149.465649,-46.267176,-11.442748,1
5,0.892,-0.087646,-1.128174,-0.153809,-147.40458,-52.961832,-8.503817,1
5,0.903,-0.132324,-1.097656,-0.163086,-145.664122,-54.946565,-5.229008,1
5,0.921,-0.174072,-1.063232,-0.159912,-145.312977,-48.099237,-0.427481,1
5,0.931,-0.177979,-1.0354,-0.137451,-144.725191,-38.358779,2.236641,1
5,0.948,-0.230225,-0.97998,-0.096436,-140.038168,-25.015267,4.59542,1
5,0.96,-0.172607,-0.939209,-0.040527,-137.053435,-1.603053,4.923664,1
5,0.97,-0.163086,-0.888672,0.032959,-136.167939,20.977099,4.923664,1
5,0.987,-0.220215,-0.837158,0.088623,-127.061069,23.656489,7.389313,1
5,0.999,-0.199951,-0.834229,-0.011475,-117.541985,32.633588,10.282443,1
5,1.009,-0.105469,-0.856201,-0.101562,-112.687023,51.519084,10.19084,1
5,1.026,0.0,-0.837402,-0.074463,-105.251908,59.671756,3.282443,1
5,1.036,0.009766,-0.815186,-0.038818,-97.793893,52.091603,-1.587786,1
5,1.048,0.007324,-0.790283,-0.006592,-87.679389,43.091603,-4.969466,1
5,1.059,-0.025635,-0.77417,-0.001953,-75.519084,35.48855,-6.129771,1
5,1.07,-0.049805,-0.75293,0.034912,-59.221374,25.969466,-5.541985,1
5,1.087,-0.053955,-0.751709,0.006592,-29.938931,13.938931,-3.229008,1
5,1.098,-0.03125,-0.78418,-0.0625,-13.381679,4.51145,-1.70229,1
5,1.109,0.007812,-0.841309,-0.177246,-2.526718,-7.48855,-1.748092,1
5,1.12,-0.002686,-0.910889,-0.331787,1.977099,-16.732824,-2.687023,1
5,1.132,-0.017822,-0.939941,-0.451904,1.618321,-23.396947,-4.229008,1
5,1.148,-0.055176,-0.942139,-0.548096,-1.40458,-29.152672,-8.343511,1
5,1.159,-0.056396,-0.936768,-0.575684,-5.030534,-30.648855,-10.473282,1
5,1.171,-0.077881,-0.907715,-0.531738,-7.053435,-32.832061,-12.519084,1
5,1.187,-0.083984,-0.906738,-0.46582,-6.061069,-36.114504,-14.938931,1
5,1.198,-0.085938,-0.928223,-0.422852,-2.183206,-34.122137,-15.167939,1
5,1.209,-0.065918,-0.955811,-0.384277,3.580153,-29.824427,-15.679389,1
5,1.226,-0.00708,-0.970703,-0.256104,14.259542,-29.366412,-18.534351,1
5,1.237,-0.022461,-0.957031,-0.193359,22.374046,-32.0,-20.572519,1
5,1.248,-0.023438,-0.946045,-0.134033,29.862595,-32.129771,-22.137405,1
5,1.26,-0.011475,-0.935547,-0.036865,37.870229,-31.473282,-24.259542,1
5,1.276,-0.020508,-0.923584,0.056152,53.282443,-32.381679,-27.641221,1
5,1.287,-0.121826,-0.959229,-0.239014,62.954198,-21.320611,-27.351145,1
5,1.298,-0.562256,-1.192139,-2.0,45.389313,114.282443,-14.480916,1
5,1.315,0.346436,-1.445801,-0.486328,42.160305,104.015267,-24.358779,1
5,1.326,0.038574,-1.414551,-0.558838,81.290076,6.038168,-34.030534,1
5,1.336,0.238037,-1.276611,-0.400146,73.374046,-84.229008,-26.946565,1
5,1.354,0.123047,-0.808838,-0.440918,63.030534,-96.076336,-22.816794,1
5,1.365,-0.062256,-0.717041,-0.356201,61.343511,-93.900763,-25.633588,1
5,1.382,0.041992,-0.779541,0.048584,66.839695,-103.251908,-34.748092,1
6,0.12,-0.029541,-1.176514,-0.097656,-190.908397,-40.51145,-40.755725,1
6,0.12,-0.029541,-1.176514,-0.097656,-190.908397,-40.51145,-40.755725,1
6,0.125,-0.047852,-1.206055,-0.111328,-191.21374,-47.687023,-39.519084,1
6,0.13,-0.07251,-1.214844,-0.111084,-190.900763,-56.114504,-37.496183,1
6,0.136,-0.109131,-1.225342,-0.118896,-190.435115,-64.900763,-35.022901,1
6,0.141,-0.128662,-1.22168,-0.076904,-188.854962,-75.167939,-32.244275,1
6,0.153,-0.170898,-1.207031,-0.014404,-184.778626,-92.229008,-25.770992,1
6,0.159,-0.20752,-1.200439,-0.029785,-183.587786,-96.244275,-21.916031,1
6,0.164,-0.268311,-1.192627,-0.030273,-182.0,-96.320611,-17.061069,1
6,0.169,-0.327148,-1.178467,-0.014648,-179.19084,-96.793893,-10.763359,1
6,0.18,-0.400879,-1.188232,-0.0354,-175.152672,-97.763359,3.969466,1
6,0.186,-0.413818,-1.172119,-0.023193,-173.061069,-93.305344,11.519084,1
6,0.191,-0.406982,-1.163086,0.014648,-168.847328,-88.694656,18.70229,1
6,0.198,-0.392578,-1.146484,0.021729,-165.114504,-82.816794,25.198473,1
6,0.203,-0.362305,-1.12793,0.077148,-160.847328,-78.824427,30.618321,1
6,0.214,-0.259766,-1.068604,0.141602,-149.778626,-71.847328,36.221374,1
6,0.219,-0.230957,-1.03833,0.131836,-144.167939,-66.984733,37.946565,1
6,0.225,-0.20459,-1.014648,0.140381,-136.473282,-58.923664,38.633588,1
6,0.23,-0.167236,-0.987549,0.130371,-129.183206,-48.923664,38.984733,1
6,0.237,-0.127441,-0.968506,0.142822,-122.175573,-38.725191,38.061069,1
6,0.247,0.048828,-0.903809,0.158203,-104.80916,-15.496183,30.732824,1
6,0.253,0.105225,-0.861084,0.112549,-95.603053,-2.366412,23.183206,1
6,0.253,0.105225,-0.861084,0.112549,-95.603053,-2.366412,23.183206,1
6,0.258,0.083496,-0.807617,0.096924,-88.068702,9.251908,15.038168,1
6,0.264,0.034668,-0.767822,0.084473,-82.870229,16.381679,8.259542,1
6,0.269,-0.012695,-0.719971,0.07373,-77.167939,20.122137,3.175573,1
6,0.275,-0.051758,-0.711182,0.076416,-70.061069,26.450382,0.015267,1
6,0.286,-0.208984,-0.697266,0.083008,-52.984733,51.801527,-1.793893,1
6,0.292,-0.220459,-0.72168,0.095947,-43.541985,64.580153,-0.664122,1
6,0.297,-0.207275,-0.750488,0.111572,-33.030534,73.274809,0.351145,1
6,0.303,-0.200928,-0.781982,0.100586,-22.816794,77.717557,1.778626,1
6,0.308,-0.187256,-0.824707,0.053223,-13.40458,79.435115,3.671756,1
6,0.314,-0.158936,-0.863281,-0.004883,-5.89313,80.015267,5.725191,1
6,0.319,-0.107178,-0.901123,-0.049316,0.076336,80.0,7.755725,1
6,0.325,-0.069092,-0.936279,-0.111084,4.664122,78.21374,9.572519,1
6,0.331,-0.010742,-0.97876,-0.167236,7.076336,74.625954,10.458015,1
6,0.342,0.124756,-1.008545,-0.246338,9.389313,60.625954,8.801527,1
6,0.347,0.197266,-1.021484,-0.236084,10.007634,50.068702,6.40458,1
6,0.353,0.269043,-1.016357,-0.223877,11.587786,36.534351,3.282443,1
6,0.358,0.297607,-1.008301,-0.201172,13.419847,22.992366,-0.641221,1
6,0.363,0.308838,-0.994629,-0.183594,15.030534,9.053435,-4.465649,1
6,0.37,0.311035,-0.982422,-0.151123,17.083969,-3.610687,-8.114504,1
6,0.375,0.288086,-0.959473,-0.10498,19.206107,-17.053435,-11.51145,1
6,0.375,0.288086,-0.959473,-0.10498,19.206107,-17.053435,-11.51145,1
6,0.381,0.273193,-0.951172,-0.043457,21.839695,-30.091603,-14.648855,1
6,0.386,0.240723,-0.95752,-0.000488,25.038168,-40.687023,-17.236641,1
6,0.391,0.224121,-0.965332,0.039062,28.946565,-46.931298,-19.259542,1
6,0.402,0.224365,-1.013672,-0.041992,38.778626,-41.145038,-22.312977,1
6,0.409,0.173828,-1.054932,-0.555908,44.328244,-17.076336,-20.473282,1
6,0.414,-0.212646,-1.192871,-1.971924,42.671756,58.290076,-14.374046,1
6,0.42,-1.092041,-1.186035,-1.972168,60.824427,73.19084,1.603053,1
6,0.425,-0.364502,-1.625,-0.466309,48.030534,23.328244,8.923664,1
6,0.43,0.405029,-1.662109,-0.513428,40.610687,-3.526718,-8.679389,1
6,0.441,-0.009521,-1.502441,-0.512695,59.946565,-25.961832,-24.183206,1
6,0.447,0.101074,-1.450195,-0.529297,59.717557,-33.496183,-24.900763,1
6,0.453,0.262939,-1.375977,-0.293213,55.908397,-43.816794,-25.29771,1
6,0.459,0.424561,-1.304688,-0.095703,55.946565,-51.343511,-27.022901,1
6,0.469,0.178467,-1.1604,0.038574,59.396947,-62.480916,-37.091603,1
6,0.475,-0.042236,-1.125488,0.049316,66.129771,-68.236641,-39.633588,1
6,0.48,-0.195068,-1.103027,-0.02002,71.083969,-76.335878,-40.389313,1
6,0.486,-0.342773,-1.10498,-0.166504,74.328244,-80.091603,-40.519084,1
6,0.491,-0.408203,-1.107666,-0.33374,75.641221,-77.442748,-39.419847,1
6,0.503,-0.424561,-1.09082,-0.448975,74.679389,-50.671756,-36.740458,1
6,0.508,-0.411133,-1.051758,-0.405762,74.679389,-38.328244,-33.946565,1
7,0.065,0.003418,-1.179932,-0.103027,-196.206107,-41.625954,1.366412,1
7,0.071,-0.000732,-1.198486,-0.053955,-198.900763,-47.030534,2.557252,1
7,0.076,0.00415,-1.221436,-0.021729,-200.847328,-51.70229,3.328244,1
7,0.082,0.003906,-1.242188,0.004639,-201.671756,-53.694656,4.328244,1
7,0.087,-0.007812,-1.262451,0.015137,-201.885496,-53.572519,5.0,1
7,0.092,-0.019043,-1.2771,0.024658,-201.923664,-51.427481,5.328244,1
7,0.099,-0.015869,-1.279785,0.096191,-200.496183,-48.587786,6.167939,1
7,0.104,-0.032715,-1.270752,0.126953,-197.80916,-44.51145,7.282443,1
7,0.115,-0.052002,-1.265137,0.134521,-191.916031,-33.59542,9.167939,1
7,0.121,-0.063232,-1.249268,0.146973,-187.709924,-25.900763,10.038168,1
7,0.126,-0.071533,-1.247314,0.127197,-184.076336,-19.251908,11.641221,1
7,0.131,-0.623047,0.002197,0.004883,4.900763,-89.78626,7.816794,1
7,0.136,-0.873779,-1.241943,0.0354,1.175573,-139.175573,7.816794,1
7,0.143,-0.056641,-1.224365,0.093994,-174.091603,-0.78626,14.839695,1
7,0.149,-0.039062,-1.221924,0.0625,-172.374046,5.854962,14.854962,1
7,0.16,0.010498,-1.18335,0.176025,-170.030534,11.236641,12.21374,1
7,0.165,0.030518,-1.168213,0.19043,-167.519084,14.198473,10.725191,1
7,0.17,0.002197,-1.156738,0.179932,-164.160305,20.717557,8.877863,1
7,0.176,-0.021973,-1.144531,0.134766,-160.587786,29.343511,7.832061,1
7,0.182,-0.071289,-1.140137,0.103516,-156.221374,39.061069,6.969466,1
7,0.188,-0.091064,-1.130859,0.094238,-151.839695,48.801527,7.221374,1
7,0.199,-0.072266,-1.097412,0.121338,-140.564885,64.908397,9.198473,1
7,0.204,-0.061768,-1.075439,0.152832,-133.396947,70.755725,9.877863,1
7,0.209,-0.045166,-1.018066,0.190186,-125.160305,75.877863,10.183206,1
7,0.215,-0.037109,-0.978516,0.219482,-115.625954,81.396947,10.648855,1
7,0.227,-0.033691,-0.852295,0.253174,-94.099237,94.374046,10.503817,1
7,0.232,-0.026611,-0.8125,0.241455,-82.076336,100.541985,11.0,1
7,0.238,-0.00415,-0.787842,0.248535,-70.900763,103.687023,11.832061,1
7,0.243,0.044678,-0.759277,0.223633,-58.160305,103.603053,12.206107,1
7,0.248,0.100098,-0.756592,0.222656,-46.534351,99.656489,12.29771,1
7,0.254,0.144531,-0.756592,0.213867,-35.877863,92.778626,11.503817,1
7,0.265,0.262451,-0.759033,0.144043,-17.022901,67.366412,9.641221,1
7,0.271,0.302979,-0.776367,0.118652,-9.847328,49.099237,8.748092,1
7,0.276,0.331299,-0.773682,0.08374,-3.541985,26.977099,8.366412,1
7,0.282,0.342285,-0.794678,0.036621,1.343511,3.549618,8.374046,1
7,0.287,0.337891,-0.806641,0.005859,5.473282,-19.587786,8.137405,1
7,0.293,0.321045,-0.839111,-0.038086,8.015267,-42.618321,7.694656,1
7,0.298,0.303223,-0.86084,-0.059082,10.10687,-63.465649,6.740458,1
7,0.304,0.286621,-0.866455,-0.039795,12.320611,-81.664122,5.832061,1
7,0.31,0.265625,-0.87793,-0.009766,14.900763,-95.732824,4.473282,1
7,0.315,0.227051,-0.881836,0.032715,18.122137,-106.076336,2.916031,1
7,0.321,0.193115,-0.884033,0.093262,22.053435,-113.183206,1.694656,1
7,0.326,0.16748,-0.873535,0.145264,27.465649,-115.916031,0.687023,1
7,0.337,0.150879,-0.825928,0.239014,40.854962,-113.114504,-0.458015,1
7,0.343,0.159668,-0.812256,0.267578,48.419847,-110.015267,-0.954198,1
7,0.348,0.175293,-0.799072,0.298584,56.19084,-106.732824,-2.129771,1
7,0.354,0.220459,-0.796631,0.286865,62.847328,-102.458015,-3.732824,1
7,0.36,0.322021,-0.837158,0.171387,68.496183,-93.916031,-6.847328,1
7,0.365,0.371094,-0.968262,-0.214844,66.778626,-78.778626,-12.099237,1
7,0.371,0.249268,-1.291748,-1.371094,47.045802,-43.053435,-18.374046,1
7,0.382,-1.019287,-1.80542,-1.989502,8.099237,49.412214,-35.015267,1
7,0.387,-0.586914,-1.80542,-0.724609,23.961832,71.862595,-38.160305,1
7,0.392,0.489502,-1.515381,-0.287109,26.603053,16.022901,-30.59542,1
7,0.399,0.339355,-1.180908,-0.143066,23.572519,-45.503817,-18.862595,1
7,0.404,-0.105225,-1.021973,0.159668,32.114504,-43.29771,-10.145038,1
7,0.415,-0.063721,-0.772705,0.232666,62.282443,15.694656,-9.816794,1
7,0.421,0.05957,-0.681885,0.108887,63.847328,21.305344,-13.580153,1
7,0.426,-0.050781,-0.793213,-0.118408,67.312977,28.923664,-16.564885,1
7,0.431,-0.053955,-1.0354,-0.38501,68.40458,26.603053,-19.160305,1
7,0.438,0.06958,-1.183105,-0.489014,65.977099,24.40458,-23.122137,1
7,0.443,0.212891,-1.264893,-0.455566,63.923664,18.442748,-26.458015,1
7,0.454,0.330322,-1.185303,-0.115234,57.763359,-14.610687,-31.083969,1
7,0.46,0.413574,-1.130859,0.011963,58.282443,-29.519084,-32.969466,1
7,0.465,0.448486,-1.095947,0.069336,59.450382,-45.633588,-34.045802,1
8,0.443,0.124756,-1.196289,-0.071289,105.435115,54.931298,18.519084,1
8,0.449,0.140381,-1.243896,-0.054443,109.175573,54.061069,16.877863,1
8,0.455,0.155273,-1.301025,-0.046631,111.381679,50.580153,15.396947,1
8,0.466,0.130859,-1.443359,-0.036377,113.328244,45.541985,11.022901,1
8,0.472,0.115723,-1.506836,-0.032471,113.091603,42.48855,9.534351,1
8,0.477,0.089111,-1.562988,-0.006836,112.19084,40.076336,8.442748,1
8,0.482,0.095215,-1.57959,0.032715,110.557252,36.175573,8.015267,1
8,0.488,0.106201,-1.546387,0.094971,109.251908,31.877863,8.519084,1
8,0.493,0.086182,-1.508789,0.122803,109.625954,29.610687,9.412214,1
8,0.5,0.038574,-1.452637,0.149902,111.045802,29.007634,10.053435,1
8,0.51,0.013428,-1.37085,0.172607,116.580153,28.580153,11.122137,1
8,0.516,0.01001,-1.369385,0.158203,117.885496,27.473282,12.083969,1
8,0.521,0.023193,-1.375,0.137939,117.687023,25.717557,13.29771,1
8,0.527,0.018066,-1.381104,0.14502,117.458015,22.137405,15.015267,1
8,0.532,0.017578,-1.380859,0.126465,115.10687,17.389313,16.748092,1
8,0.538,0.031494,-1.369873,0.098633,111.045802,12.923664,18.587786,1
8,0.544,0.023682,-1.351074,0.089111,105.450382,7.412214,20.29771,1
8,0.549,0.061279,-1.317627,0.066895,100.816794,2.625954,21.374046,1
8,0.56,0.096436,-1.228271,0.118652,86.419847,-8.740458,22.236641,1
8,0.566,0.114502,-1.171387,0.218018,85.549618,-16.656489,23.045802,1
8,0.571,0.15332,-1.106445,0.265381,84.114504,-25.343511,22.954198,1
8,0.577,0.167725,-1.064453,0.30957,82.625954,-34.19084,23.030534,1
8,0.583,0.165771,-1.028564,0.308838,81.152672,-41.473282,21.877863,1
8,0.594,0.155273,-0.984619,0.209229,71.519084,-53.854962,18.412214,1
8,0.599,0.13623,-0.970459,0.167236,67.641221,-57.198473,16.083969,1
8,0.605,0.08374,-0.966064,0.094971,61.206107,-60.236641,14.381679,1
8,0.61,0.036621,-0.944824,0.012207,52.152672,-62.007634,13.603053,1
8,0.616,-0.007568,-0.91333,-0.030518,43.244275,-61.877863,13.175573,1
8,0.621,-0.062744,-0.871826,-0.084473,34.465649,-60.908397,13.839695,1
8,0.627,-0.086914,-0.829834,-0.112305,26.015267,-57.740458,14.366412,1
8,0.638,-0.114746,-0.750732,-0.200439,6.603053,-46.679389,15.916031,1
8,0.644,-0.144775,-0.72998,-0.251465,-5.389313,-38.534351,16.610687,1
8,0.649,-0.166504,-0.717773,-0.318848,-17.091603,-29.625954,17.091603,1
8,0.655,-0.162354,-0.700439,-0.342041,-28.969466,-21.099237,18.061069,1
8,0.66,-0.169434,-0.672363,-0.355957,-40.725191,-13.885496,18.969466,1
8,0.665,-0.161133,-0.654053,-0.332764,-52.015267,-7.137405,19.908397,1
8,0.672,-0.146973,-0.644775,-0.319092,-62.954198,-1.152672,21.122137,1
8,0.677,-0.131348,-0.635498,-0.307617,-74.053435,4.824427,22.244275,1
8,0.688,-0.072754,-0.628174,-0.294922,-95.656489,13.870229,23.19084,1
8,0.694,-0.043701,-0.648193,-0.276367,-106.442748,16.519084,23.312977,1
8,0.699,-0.025635,-0.657959,-0.260498,-116.435115,18.145038,23.374046,1
8,0.704,-0.016846,-0.678955,-0.256104,-126.343511,19.389313,22.770992,1
8,0.711,-0.001709,-0.701416,-0.239014,-136.068702,20.29771,22.656489,1
8,0.716,0.005859,-0.729736,-0.233887,-145.824427,20.70229,21.969466,1
8,0.722,0.017578,-0.74585,-0.21582,-154.923664,21.10687,20.977099,1
8,0.732,0.042236,-0.787598,-0.169434,-172.89313,19.885496,18.267176,1
8,0.738,0.048828,-0.804932,-0.132812,-181.10687,19.603053,16.458015,1
8,0.743,0.075439,-0.830078,-0.106689,-188.877863,18.290076,14.389313,1
8,0.749,0.089844,-0.85376,-0.083252,-196.709924,16.740458,12.145038,1
8,0.755,0.11792,-0.891602,-0.044434,-204.068702,14.358779,9.763359,1
8,0.761,0.13501,-0.929688,-0.016602,-211.389313,10.458015,7.458015,1
8,0.766,0.144043,-0.967285,0.015137,-218.137405,5.465649,5.282443,1
8,0.777,0.162598,-1.062012,0.060791,-229.793893,-6.251908,1.59542,1
8,0.782,0.161133,-1.116211,0.082764,-234.870229,-12.625954,-0.007634,1
8,0.788,0.177246,-1.157959,0.089355,-239.473282,-19.419847,-1.076336,1
8,0.793,0.172852,-1.212402,0.117432,-243.458015,-25.832061,-1.793893,1
8,0.8,0.17041,-1.253418,0.138672,-247.358779,-32.847328,-2.129771,1
8,0.805,0.16748,-1.298584,0.146973,-250.137405,-38.725191,-2.007634,1
8,0.816,0.152832,-1.364502,0.222656,-250.137405,-49.78626,-0.450382,1
8,0.821,0.130859,-1.394775,0.253174,-250.137405,-53.244275,1.290076,1
8,0.827,0.112793,-1.396973,0.27417,-250.137405,-54.709924,3.015267,1
8,0.832,0.081299,-1.414307,0.300049,-250.137405,-53.358779,4.48855,1
8,0.839,0.058838,-1.4104,0.328125,-250.137405,-49.053435,6.0,1
8,0.849,0.00293,-1.450439,0.344727,-250.137405,-32.068702,7.954198,1
9,0.527,0.112061,-1.214355,0.015869,90.328244,48.992366,14.015267,1
9,0.532,0.111816,-1.250244,0.023193,91.267176,47.091603,13.0,1
9,0.543,0.07251,-1.33667,-0.002686,91.419847,44.519084,11.900763,1
9,0.55,0.061279,-1.377441,0.00708,91.122137,43.412214,11.984733,1
9,0.555,0.067139,-1.413818,0.009521,90.045802,41.366412,12.458015,1
9,0.561,0.094727,-1.429199,0.062256,89.198473,37.160305,12.854962,1
9,0.566,0.122803,-1.43335,0.091309,89.045802,32.48855,13.335878,1
9,0.571,0.137207,-1.427246,0.101562,90.618321,28.450382,14.396947,1
9,0.577,0.106201,-1.40918,0.102783,92.030534,25.206107,15.442748,1
9,0.589,0.032959,-1.365967,0.113525,96.152672,20.48855,18.374046,1
9,0.594,0.044434,-1.360107,0.092285,97.175573,20.526718,20.244275,1
9,0.6,0.083008,-1.35791,0.080078,98.59542,19.068702,21.312977,1
9,0.605,0.105713,-1.333008,0.082031,99.274809,15.450382,22.503817,1
9,0.61,0.12207,-1.306641,0.088135,98.694656,10.51145,23.259542,1
9,0.616,0.13916,-1.256104,0.104492,95.587786,5.29771,23.374046,1
9,0.621,0.159424,-1.217773,0.120117,93.961832,0.152672,23.068702,1
9,0.633,0.204834,-1.130615,0.144287,87.931298,-13.099237,20.717557,1
9,0.638,0.209717,-1.052734,0.205566,84.465649,-21.030534,19.221374,1
9,0.644,0.208984,-1.002441,0.223877,81.160305,-31.007634,17.480916,1
9,0.649,0.199951,-0.94751,0.210938,76.793893,-37.343511,15.030534,1
9,0.655,0.177734,-0.907471,0.144043,71.709924,-42.007634,11.793893,1
9,0.66,0.151123,-0.898926,0.046631,63.251908,-44.351145,8.557252,1
9,0.671,0.052246,-0.888428,-0.217773,41.679389,-41.633588,3.419847,1
9,0.677,-0.016602,-0.884521,-0.336426,28.801527,-38.70229,1.694656,1
9,0.683,-0.102295,-0.871094,-0.423828,15.992366,-32.78626,0.862595,1
9,0.688,-0.147949,-0.833496,-0.456543,3.099237,-25.061069,0.557252,1
9,0.694,-0.17627,-0.796143,-0.477783,-10.053435,-15.251908,0.885496,1
9,0.699,-0.204102,-0.769531,-0.504883,-22.740458,-4.328244,1.473282,1
9,0.705,-0.213623,-0.752686,-0.506592,-35.061069,7.328244,2.328244,1
9,0.71,-0.203369,-0.740479,-0.497803,-46.679389,17.198473,2.854962,1
9,0.716,-0.168213,-0.75415,-0.478027,-58.938931,25.221374,3.503817,1
9,0.722,-0.130127,-0.760986,-0.461914,-70.740458,29.549618,4.183206,1
9,0.727,-0.100586,-0.77417,-0.447021,-82.274809,31.221374,5.038168,1
9,0.738,-0.054443,-0.821045,-0.428467,-104.854962,29.778626,6.694656,1
9,0.744,-0.038086,-0.841064,-0.414795,-115.496183,27.312977,7.328244,1
9,0.749,-0.016602,-0.872559,-0.380859,-125.312977,23.717557,8.335878,1
9,0.754,0.007568,-0.896484,-0.359619,-134.51145,20.175573,8.78626,1
9,0.761,0.034668,-0.93335,-0.337891,-143.29771,15.022901,9.022901,1
9,0.766,0.056152,-0.969482,-0.317139,-151.671756,8.564885,9.068702,1
9,0.772,0.077881,-1.018311,-0.296143,-160.259542,1.366412,9.274809,1
9,0.777,0.094482,-1.047607,-0.269775,-168.78626,-6.59542,9.496183,1
9,0.788,0.130371,-1.092773,-0.157715,-182.793893,-24.083969,9.625954,1
9,0.793,0.142578,-1.127686,-0.125488,-189.21374,-31.503817,9.572519,1
9,0.799,0.157715,-1.143311,-0.108154,-194.572519,-38.793893,8.778626,1
9,0.805,0.162842,-1.18042,-0.078125,-199.618321,-46.366412,8.328244,1
9,0.811,0.16748,-1.202393,-0.053467,-203.435115,-53.80916,7.916031,1
9,0.821,0.171875,-1.242188,0.02124,-209.618321,-67.091603,7.19084,1
9,0.827,0.168945,-1.252441,0.027588,-211.923664,-72.664122,7.198473,1
9,0.832,0.165283,-1.271484,0.053467,-213.351145,-77.259542,6.977099,1
9,0.838,0.16333,-1.302246,0.070557,-214.022901,-80.778626,6.916031,1
9,0.844,0.155518,-1.317383,0.085693,-214.587786,-83.442748,7.0,1
9,0.85,0.136963,-1.338135,0.085205,-214.122137,-84.427481,7.114504,1
9,0.861,0.112793,-1.360596,0.11792,-212.160305,-81.587786,8.007634,1
9,0.866,0.102051,-1.36792,0.116943,-210.419847,-79.290076,8.541985,1
9,0.871,0.093506,-1.359131,0.130371,-208.160305,-75.755725,9.083969,1
9,0.877,0.06958,-1.348633,0.14209,-205.870229,-71.48855,10.045802,1
9,0.882,0.063721,-1.340576,0.164551,-203.152672,-66.80916,11.244275,1
9,0.894,0.054932,-1.292725,0.223877,-196.374046,-55.89313,13.015267,1
9,0.9,0.063965,-1.275879,0.229248,-191.862595,-49.725191,13.519084,1
9,0.905,0.06665,-1.256104,0.239502,-186.427481,-43.419847,12.931298,1
9,0.91,0.071777,-1.242188,0.250977,-180.816794,-36.801527,12.59542,1
9,0.916,0.062012,-1.228027,0.259277,-174.580153,-29.816794,11.938931,1
9,0.921,0.069092,-1.20752,0.266846,-168.48855,-23.465649,11.450382,1
9,0.933,0.114014,-1.150879,0.308105,-153.473282,-12.496183,9.564885,1
10,0.108,0.002197,-1.195557,-0.179932,52.145038,6.900763,8.320611,1
10,0.119,-0.016357,-1.237793,-0.139404,52.458015,5.946565,7.122137,1
10,0.13,-0.043701,-1.303223,-0.103516,56.167939,11.717557,6.801527,1
10,0.146,0.078369,-1.365723,-0.150635,62.824427,23.282443,5.549618,1
10,0.158,0.084961,-1.317871,-0.167725,67.007634,24.801527,3.412214,1
10,0.169,0.07251,-1.270752,-0.112793,68.687023,21.435115,2.854962,1
10,0.179,0.126709,-1.23291,-0.150635,68.80916,16.007634,1.40458,1
10,0.19,0.151611,-1.169922,-0.207031,66.305344,5.305344,0.076336,1
10,0.208,0.09668,-1.093262,-0.234863,60.839695,-8.564885,-2.557252,1
10,0.218,0.052246,-1.060547,-0.459717,50.21374,-7.80916,-4.671756,1
10,0.229,0.133301,-1.005615,-0.645752,31.740458,-13.625954,-8.870229,1
10,0.246,0.036377,-0.905518,-0.767578,2.259542,-14.977099,-15.603053,1
10,0.257,-0.07959,-0.853516,-0.796387,-17.656489,-14.175573,-16.29771,1
10,0.268,-0.155518,-0.847656,-0.796631,-36.290076,-5.328244,-14.503817,1
10,0.28,-0.163818,-0.87793,-0.781738,-55.038168,7.175573,-10.984733,1
10,0.296,-0.178467,-0.94043,-0.668457,-80.381679,21.732824,-3.931298,1
10,0.307,-0.172607,-0.991699,-0.620605,-94.480916,26.824427,1.89313,1
10,0.318,-0.150635,-1.034424,-0.562744,-105.671756,27.381679,7.007634,1
10,0.335,-0.073242,-1.080322,-0.470947,-118.625954,16.396947,12.030534,1
10,0.346,-0.018311,-1.107666,-0.408691,-125.946565,4.877863,13.564885,1
10,0.357,-0.002441,-1.127686,-0.330322,-131.198473,-8.282443,13.709924,1
10,0.374,0.001709,-1.159912,-0.24707,-135.290076,-24.931298,13.572519,1
10,0.385,-0.018311,-1.16748,-0.207764,-136.381679,-31.015267,13.328244,1
10,0.396,-0.019531,-1.162354,-0.143555,-136.51145,-33.572519,13.80916,1
10,0.413,-0.02832,-1.150146,-0.088867,-133.671756,-32.48855,14.992366,1
10,0.424,-0.012451,-1.138672,-0.053955,-130.778626,-30.832061,15.450382,1
10,0.435,-0.002197,-1.130859,-0.017578,-126.908397,-29.465649,16.007634,1
10,0.452,-0.020752,-1.095215,0.005371,-119.442748,-26.59542,16.870229,1
10,0.463,-0.027832,-1.078369,0.039307,-112.816794,-22.992366,18.282443,1
10,0.474,-0.022949,-1.049072,0.05249,-104.59542,-19.274809,19.053435,1
10,0.49,-0.006836,-1.046631,0.006348,-96.862595,-12.618321,19.557252,1
10,0.502,-0.006592,-1.013428,0.086426,-92.755725,-10.580153,20.267176,1
10,0.513,0.021729,-0.981689,0.134277,-84.022901,-8.572519,20.114504,1
10,0.524,0.036865,-0.955811,0.130615,-74.328244,-5.763359,19.801527,1
10,0.541,0.071533,-0.881348,0.129395,-59.053435,-3.473282,16.709924,1
10,0.552,0.139893,-0.879639,0.105469,-54.778626,-5.320611,14.274809,1
10,0.563,0.174316,-0.873535,0.134766,-46.778626,-10.954198,10.679389,1
10,0.58,0.139893,-0.887695,0.066406,-35.259542,-20.312977,5.732824,1
10,0.591,0.088867,-0.894287,0.029297,-29.290076,-22.648855,3.770992,1
10,0.602,0.064941,-0.893066,-0.003418,-24.961832,-21.381679,2.091603,1
10,0.613,0.043945,-0.88623,-0.003418,-22.29771,-17.679389,1.129771,1
10,0.624,0.041748,-0.889893,0.001465,-19.122137,-11.740458,0.152672,1
10,0.635,0.048096,-0.897949,-0.015137,-16.259542,-4.343511,-0.572519,1
10,0.646,0.071045,-0.915283,-0.052979,-14.335878,1.80916,-2.007634,1
10,0.657,0.087158,-0.909912,-0.03418,-11.740458,5.854962,-3.679389,1
10,0.674,0.091064,-0.910889,-0.05835,-8.625954,11.778626,-7.145038,1
10,0.685,0.096191,-0.916992,-0.050293,-5.541985,13.938931,-9.274809,1
10,0.696,0.094727,-0.913086,-0.065186,-1.48855,15.763359,-11.129771,1
10,0.708,0.090088,-0.895752,-0.060547,2.152672,16.358779,-13.053435,1
10,0.719,0.113281,-0.880371,-0.029541,7.496183,15.969466,-15.099237,1
10,0.73,0.122559,-0.867676,0.002197,13.290076,14.320611,-17.10687,1
10,0.74,0.143555,-0.854492,0.02417,19.740458,11.48855,-19.221374,1
10,0.758,0.145752,-0.837646,0.045166,27.679389,4.068702,-22.175573,1
10,0.769,0.105957,-0.835693,-0.032471,31.358779,1.977099,-23.801527,1
10,0.779,-0.157715,-1.26416,-1.959961,-4.648855,31.648855,-24.198473,1
10,0.791,-1.5,-1.687988,-0.839111,38.938931,112.007634,-18.007634,1
10,0.807,0.800049,-1.650391,0.096924,104.343511,48.10687,-10.572519,1
10,0.818,1.329102,-1.002686,0.415283,99.648855,-87.572519,-13.541985,1
10,0.836,0.556641,-1.175049,0.0896,86.244275,-161.328244,-65.503817,1
10,0.846,-0.50415,-1.700928,0.202393,91.358779,-195.770992,-67.381679,1
10,0.863,-0.863525,-1.212402,-0.010498,82.305344,-85.099237,-38.10687,1
10,0.874,-0.462646,-0.878662,0.047119,74.832061,-16.137405,-38.21374,1
10,0.891,0.005615,-1.012939,-0.13208,56.725191,57.778626,-40.923664,1
10,0.902,0.126465,-1.162842,-0.108887,46.564885,75.931298,-35.10687,1
11,0.174,0.07251,-1.179443,-0.194092,61.274809,15.549618,8.877863,1
11,0.185,0.031006,-1.22998,-0.18042,64.419847,15.641221,5.931298,1
11,0.19,0.009766,-1.253662,-0.163086,67.885496,17.015267,4.992366,1
11,0.196,-0.015137,-1.274902,-0.160645,70.587786,20.305344,4.221374,1
11,0.201,-0.033936,-1.308105,-0.178223,72.458015,23.442748,4.022901,1
11,0.208,-0.044189,-1.341553,-0.203857,69.526718,27.465649,3.740458,1
11,0.213,-0.018311,-1.364746,-0.112061,70.061069,31.671756,3.114504,1
11,0.218,0.0354,-1.378418,-0.095703,71.954198,39.312977,1.656489,1
11,0.224,0.045898,-1.374023,-0.18457,72.839695,47.603053,-0.076336,1
11,0.229,0.018311,-1.361816,-0.185059,73.832061,51.938931,-0.679389,1
11,0.235,0.014893,-1.338135,-0.139893,75.778626,54.496183,-0.244275,1
11,0.24,0.028564,-1.326172,-0.109619,77.801527,55.343511,-0.847328,1
11,0.252,0.061523,-1.332275,-0.142822,81.725191,51.847328,-2.908397,1
11,0.257,0.081299,-1.327637,-0.157959,83.824427,47.396947,-4.083969,1
11,0.263,0.087891,-1.306396,-0.114746,86.977099,42.847328,-4.854962,1
11,0.268,0.10376,-1.291992,-0.088379,90.076336,36.931298,-5.053435,1
11,0.274,0.113037,-1.248291,-0.073975,92.931298,30.633588,-5.419847,1
11,0.279,0.117676,-1.233154,-0.06958,95.312977,24.687023,-5.496183,1
11,0.291,0.112793,-1.21167,-0.208008,94.832061,14.450382,-6.114504,1
11,0.296,0.111816,-1.193115,-0.354736,89.954198,7.671756,-6.694656,1
11,0.302,0.083252,-1.16626,-0.495117,83.664122,0.465649,-7.030534,1
11,0.307,0.026855,-1.094238,-0.599365,77.21374,-8.656489,-6.908397,1
11,0.313,-0.041992,-1.017334,-0.631592,71.732824,-11.114504,-6.770992,1
11,0.318,-0.071533,-0.965576,-0.635742,64.435115,-11.244275,-6.244275,1
11,0.323,-0.113525,-0.927002,-0.672852,55.320611,-11.343511,-6.053435,1
11,0.329,-0.132568,-0.908691,-0.715332,45.70229,-10.396947,-5.633588,1
11,0.335,-0.166992,-0.881348,-0.755859,35.099237,-7.145038,-5.007634,1
11,0.346,-0.185059,-0.837158,-0.842285,11.862595,-2.557252,-3.824427,1
11,0.352,-0.20459,-0.826904,-0.881592,0.648855,3.671756,-2.78626,1
11,0.357,-0.225586,-0.806885,-0.861572,-11.267176,10.167939,-2.015267,1
11,0.362,-0.234619,-0.80127,-0.869629,-23.183206,16.877863,-0.709924,1
11,0.368,-0.236084,-0.79541,-0.855957,-34.641221,23.610687,1.206107,1
11,0.373,-0.239746,-0.804199,-0.831299,-45.435115,28.534351,3.129771,1
11,0.38,-0.224121,-0.799072,-0.816162,-55.89313,31.526718,4.900763,1
11,0.385,-0.203613,-0.810059,-0.804199,-65.503817,32.854962,6.908397,1
11,0.396,-0.178223,-0.826172,-0.748779,-83.984733,29.70229,10.450382,1
11,0.401,-0.17041,-0.839111,-0.750488,-92.687023,26.427481,12.122137,1
11,0.407,-0.136475,-0.863037,-0.694824,-100.770992,22.40458,13.557252,1
11,0.412,-0.131592,-0.880371,-0.655518,-108.877863,17.641221,14.923664,1
11,0.419,-0.117432,-0.912109,-0.61377,-116.549618,12.557252,16.221374,1
11,0.424,-0.113525,-0.930664,-0.562744,-123.969466,6.572519,17.358779,1
11,0.435,-0.092285,-0.986572,-0.452637,-136.916031,-6.419847,20.083969,1
11,0.44,-0.082275,-1.018066,-0.405273,-142.908397,-11.900763,20.862595,1
11,0.446,-0.073242,-1.050049,-0.364258,-147.641221,-17.816794,22.21374,1
11,0.451,-0.076904,-1.07666,-0.330811,-151.732824,-22.236641,22.923664,1
11,0.457,-0.065186,-1.098389,-0.300781,-155.755725,-26.21374,23.78626,1
11,0.468,-0.061523,-1.137451,-0.211914,-161.473282,-31.59542,25.610687,1
11,0.474,-0.053711,-1.153809,-0.186279,-163.152672,-33.748092,26.610687,1
11,0.479,-0.045654,-1.166016,-0.158203,-164.381679,-35.557252,27.389313,1
11,0.485,-0.037354,-1.175293,-0.140625,-165.335878,-36.885496,28.221374,1
11,0.49,-0.029053,-1.174072,-0.125244,-165.244275,-38.358779,29.015267,1
11,0.501,-0.004395,-1.190918,-0.078857,-164.312977,-40.664122,30.366412,1
11,0.508,0.006592,-1.182129,-0.053223,-162.908397,-41.465649,30.824427,1
11,0.513,0.00708,-1.17749,-0.040527,-161.274809,-41.847328,31.229008,1
11,0.518,0.010254,-1.166504,-0.026611,-159.061069,-41.351145,31.770992,1
11,0.524,0.013428,-1.155762,-0.013428,-156.977099,-39.923664,32.358779,1
11,0.535,0.022217,-1.138428,0.020996,-151.51145,-36.21374,32.740458,1
11,0.54,0.03418,-1.140869,0.016602,-148.664122,-34.427481,32.870229,1
11,0.545,0.040039,-1.14502,0.02002,-146.152672,-32.694656,32.587786,1
11,0.552,0.050781,-1.139648,0.041992,-143.022901,-30.870229,32.167939,1
11,0.557,0.05957,-1.143555,0.050049,-139.519084,-28.877863,31.78626,1
11,0.563,0.065674,-1.135986,0.063232,-136.0,-26.625954,31.282443,1
11,0.574,0.089111,-1.116211,0.084229,-128.664122,-21.030534,29.854962,1
11,0.579,0.103271,-1.100342,0.093506,-124.816794,-18.335878,28.832061,1
12,1.202,0.006836,-1.160645,-0.292236,109.70229,19.40458,22.824427,1
12,1.208,0.024658,-1.248535,-0.322998,112.89313,21.305344,21.29771,1
12,1.214,0.027832,-1.346191,-0.361816,113.580153,22.389313,19.137405,1
12,1.22,-0.00708,-1.445068,-0.368652,111.770992,23.557252,16.900763,1
12,1.225,0.040283,-1.528809,-0.337891,110.778626,25.007634,15.519084,1
12,1.231,0.074951,-1.592285,-0.332275,109.816794,24.167939,13.770992,1
12,1.241,0.082764,-1.63623,-0.248291,106.122137,25.328244,11.351145,1
12,1.247,0.134521,-1.61792,-0.179443,105.557252,22.564885,9.396947,1
12,1.253,0.160889,-1.591553,-0.182617,103.396947,19.534351,6.854962,1
12,1.259,0.138672,-1.55957,-0.156982,99.709924,15.580153,4.473282,1
12,1.264,0.094727,-1.492432,-0.0979,99.259542,13.312977,2.877863,1
12,1.27,0.090332,-1.457275,-0.03833,97.587786,14.335878,2.251908,1
12,1.28,0.057129,-1.378906,-0.030029,96.007634,22.78626,1.984733,1
12,1.286,0.058105,-1.328613,-0.063232,93.175573,28.877863,1.908397,1
12,1.291,0.106201,-1.290283,-0.064453,93.091603,34.122137,1.549618,1
12,1.298,0.165039,-1.230225,-0.05127,93.564885,34.625954,0.755725,1
12,1.303,0.234619,-1.189697,-0.091064,92.687023,32.641221,-0.656489,1
12,1.308,0.270264,-1.178467,-0.166504,89.778626,28.045802,-2.541985,1
12,1.319,0.30127,-1.151855,-0.59082,70.587786,10.007634,-7.038168,1
12,1.325,0.259033,-1.086426,-0.65625,60.816794,-2.374046,-9.992366,1
12,1.33,0.228516,-1.011963,-0.634766,52.938931,-12.519084,-12.473282,1
12,1.336,0.176514,-0.946289,-0.612305,44.343511,-19.030534,-14.610687,1
12,1.342,0.111084,-0.910156,-0.606934,34.587786,-23.244275,-15.610687,1
12,1.347,0.062744,-0.873291,-0.634277,24.580153,-27.419847,-15.908397,1
12,1.353,0.05542,-0.85376,-0.659912,14.603053,-30.664122,-16.175573,1
12,1.364,-0.007812,-0.791992,-0.672119,-5.70229,-33.305344,-16.580153,1
12,1.369,-0.030518,-0.772217,-0.690674,-16.122137,-32.541985,-16.625954,1
12,1.375,-0.08252,-0.750977,-0.644775,-25.679389,-30.328244,-15.458015,1
12,1.381,-0.12915,-0.744385,-0.612549,-35.412214,-24.870229,-13.732824,1
12,1.386,-0.145508,-0.748535,-0.603516,-46.015267,-18.183206,-11.473282,1
12,1.392,-0.166016,-0.762451,-0.569092,-56.10687,-12.51145,-8.908397,1
12,1.403,-0.138184,-0.802002,-0.527832,-72.908397,-5.167939,-2.916031,1
12,1.408,-0.111328,-0.816406,-0.483154,-80.801527,-4.076336,-0.244275,1
12,1.414,-0.106934,-0.826416,-0.465332,-87.801527,-4.473282,2.816794,1
12,1.419,-0.087891,-0.830811,-0.439697,-94.916031,-5.80916,5.450382,1
12,1.425,-0.052002,-0.829834,-0.400391,-101.206107,-8.778626,7.938931,1
12,1.431,-0.04126,-0.843262,-0.394531,-107.526718,-12.442748,10.129771,1
12,1.442,-0.010742,-0.860352,-0.318359,-118.51145,-24.030534,13.923664,1
12,1.447,0.006348,-0.871338,-0.2771,-123.70229,-30.770992,15.564885,1
12,1.453,0.014893,-0.891113,-0.240967,-128.427481,-37.618321,16.824427,1
12,1.458,0.01709,-0.901611,-0.206299,-132.59542,-45.030534,18.0,1
12,1.463,0.023438,-0.9104,-0.173584,-136.21374,-51.29771,18.839695,1
12,1.475,0.013916,-0.94458,-0.117188,-143.381679,-62.389313,19.938931,1
12,1.481,0.01001,-0.957275,-0.101318,-146.114504,-66.343511,20.396947,1
12,1.486,0.011719,-0.973633,-0.069092,-148.59542,-69.541985,20.557252,1
12,1.492,0.012695,-0.979492,-0.05957,-150.969466,-72.305344,20.610687,1
12,1.497,0.019775,-0.991211,-0.0354,-153.10687,-75.229008,20.610687,1
12,1.509,0.063721,-1.008057,0.021484,-154.984733,-81.89313,20.450382,1
12,1.514,0.080322,-1.009033,0.043701,-154.709924,-86.167939,20.053435,1
12,1.52,0.108398,-1.006104,0.068604,-154.137405,-91.664122,19.641221,1
12,1.525,0.11792,-0.995605,0.092041,-152.259542,-97.389313,19.183206,1
12,1.531,0.096924,-0.993408,0.109375,-149.603053,-104.78626,18.503817,1
12,1.541,0.049316,-0.994141,0.172852,-142.832061,-109.458015,19.564885,1
12,1.547,0.029297,-1.03125,0.217041,-140.045802,-109.015267,21.030534,1
12,1.553,0.039062,-1.057129,0.216553,-136.824427,-107.236641,23.038168,1
12,1.559,0.039062,-1.100342,0.259277,-132.244275,-105.419847,25.198473,1
12,1.564,0.056885,-1.121094,0.290527,-127.175573,-100.984733,27.122137,1
12,1.575,0.126953,-1.177979,0.302979,-124.679389,-91.335878,29.519084,1
12,1.58,0.193115,-1.157471,0.413086,-122.625954,-87.099237,29.839695,1
12,1.586,0.274414,-1.162842,0.480713,-117.793893,-84.328244,29.51145,1
12,1.591,0.344971,-1.158203,0.520752,-114.839695,-80.793893,27.984733,1
12,1.598,0.374512,-1.160645,0.535645,-111.503817,-78.664122,26.442748,1
12,1.608,0.4646,-1.083252,0.653076,-99.351145,-76.122137,20.251908,1
12,1.614,0.586914,-1.063721,0.684082,-92.198473,-71.770992,14.114504,1
13,1.097,-0.034912,-1.223877,-0.20459,86.351145,-8.610687,-1.236641,1
13,1.102,-0.041992,-1.264648,-0.20752,86.305344,-3.732824,-2.335878,1
13,1.108,-0.049072,-1.313721,-0.227539,83.969466,0.709924,-2.954198,1
13,1.113,-0.07666,-1.336914,-0.184082,82.267176,4.305344,-3.114504,1
13,1.119,-0.061035,-1.371094,-0.150879,81.167939,9.938931,-2.969466,1
13,1.124,-0.04541,-1.406006,-0.136719,79.587786,16.137405,-3.091603,1
13,1.135,0.106201,-1.450684,-0.169678,75.732824,32.519084,-6.648855,1
13,1.141,0.109131,-1.44043,-0.2146,72.931298,40.984733,-8.427481,1
13,1.147,0.032227,-1.399658,-0.238525,69.854962,45.946565,-8.633588,1
13,1.152,-0.030029,-1.363281,-0.16626,67.954198,47.389313,-6.954198,1
13,1.158,-0.009766,-1.316406,-0.07373,68.473282,50.045802,-5.412214,1
13,1.163,-0.00415,-1.302734,-0.065918,67.847328,53.335878,-4.633588,1
13,1.168,0.01001,-1.285889,-0.036865,69.656489,57.625954,-4.145038,1
13,1.18,0.103516,-1.270752,-0.119873,70.557252,60.0,-2.78626,1
13,1.186,0.116699,-1.239014,-0.135498,70.900763,53.694656,-2.59542,1
13,1.191,0.144531,-1.196533,-0.139648,71.022901,47.305344,-1.80916,1
13,1.197,0.191895,-1.145508,-0.170898,70.755725,39.198473,-2.748092,1
13,1.202,0.197266,-1.112549,-0.165771,71.099237,29.908397,-4.145038,1
13,1.207,0.208252,-1.066406,-0.158447,71.412214,18.694656,-5.381679,1
13,1.218,0.203125,-1.04834,-0.383789,64.923664,-4.748092,-8.007634,1
13,1.225,0.184082,-1.044189,-0.494629,55.801527,-16.29771,-9.755725,1
13,1.23,0.133057,-1.009521,-0.59668,46.40458,-23.465649,-11.122137,1
13,1.236,0.019775,-0.980225,-0.67749,36.061069,-26.89313,-12.435115,1
13,1.241,-0.066162,-0.940674,-0.700439,26.053435,-26.045802,-12.435115,1
13,1.246,-0.142822,-0.898926,-0.679932,16.0,-21.89313,-11.70229,1
13,1.252,-0.186523,-0.866211,-0.65625,6.137405,-15.152672,-10.656489,1
13,1.263,-0.217773,-0.842773,-0.657471,-12.80916,-0.244275,-7.847328,1
13,1.269,-0.219238,-0.834473,-0.656738,-22.183206,5.412214,-6.580153,1
13,1.275,-0.201904,-0.832031,-0.6521,-31.267176,10.923664,-5.099237,1
13,1.28,-0.183838,-0.854248,-0.626221,-40.618321,14.51145,-3.664122,1
13,1.285,-0.177734,-0.864014,-0.631592,-49.206107,17.167939,-2.122137,1
13,1.291,-0.151367,-0.886719,-0.613281,-57.717557,19.290076,-0.480916,1
13,1.296,-0.157227,-0.915527,-0.579834,-65.80916,19.564885,0.274809,1
13,1.308,-0.14209,-0.951416,-0.52124,-78.618321,19.160305,3.251908,1
13,1.313,-0.139893,-0.953125,-0.460449,-83.259542,19.045802,4.778626,1
13,1.319,-0.116699,-0.983154,-0.429199,-86.89313,15.312977,6.274809,1
13,1.324,-0.089355,-0.995605,-0.379639,-90.694656,15.328244,7.687023,1
13,1.33,-0.06958,-1.005615,-0.32251,-93.541985,10.374046,8.801527,1
13,1.335,-0.024902,-1.025879,-0.295898,-94.465649,4.251908,9.633588,1
13,1.346,0.056396,-1.039551,-0.192383,-97.183206,-2.465649,9.862595,1
13,1.352,0.099121,-1.051758,-0.196533,-98.717557,-11.557252,9.748092,1
13,1.358,0.08667,-1.05957,-0.115234,-99.167939,-12.503817,9.854962,1
13,1.363,0.117676,-1.066406,-0.133545,-102.083969,-21.946565,9.748092,1
13,1.369,0.08667,-1.07373,-0.135742,-105.450382,-28.610687,9.885496,1
13,1.38,0.045898,-1.080566,-0.068604,-112.19084,-39.29771,10.458015,1
13,1.385,0.022949,-1.074707,-0.035156,-113.778626,-43.129771,11.465649,1
13,1.39,0.006348,-1.067139,-0.001953,-114.641221,-45.366412,12.389313,1
13,1.397,-0.008301,-1.060059,0.006104,-115.229008,-46.320611,13.259542,1
13,1.402,-0.018555,-1.053223,0.003906,-115.519084,-45.259542,14.603053,1
13,1.413,-0.044434,-1.036377,0.024902,-116.603053,-40.564885,17.061069,1
13,1.419,-0.03125,-1.02832,0.022461,-116.51145,-37.618321,18.335878,1
13,1.424,-0.049316,-1.027344,0.011719,-117.473282,-34.687023,19.557252,1
13,1.429,-0.062744,-1.009277,0.052002,-117.557252,-26.70229,20.732824,1
13,1.436,-0.047363,-0.984863,0.04248,-117.21374,-23.206107,21.633588,1
13,1.447,-0.043457,-0.981689,0.082764,-115.244275,-12.305344,22.908397,1
13,1.452,-0.018066,-0.980713,0.07373,-114.374046,-8.244275,23.580153,1
13,1.458,-0.005615,-0.97876,0.092285,-113.0,-4.29771,23.549618,1
13,1.463,0.012451,-0.972656,0.102295,-111.030534,-1.259542,23.526718,1
13,1.468,0.034912,-0.964355,0.10791,-109.145038,1.694656,23.343511,1
13,1.474,0.037354,-0.962158,0.127197,-107.312977,4.198473,22.427481,1
13,1.48,0.057129,-0.947754,0.13208,-104.778626,6.824427,21.557252,1
13,1.491,0.060059,-0.926514,0.145264,-99.671756,11.51145,19.198473,1
13,1.497,0.052246,-0.917969,0.151611,-97.175573,14.259542,17.793893,1
13,1.502,0.036133,-0.911133,0.150391,-94.320611,16.648855,16.931298,1
14,0.523,0.229492,-1.160889,-0.134277,57.572519,-8.496183,32.122137,1
14,0.534,0.29248,-1.197754,-0.120605,61.763359,-21.129771,28.076336,1
14,0.539,0.303711,-1.233398,-0.110596,61.374046,-29.167939,25.793893,1
14,0.544,0.269287,-1.318115,-0.135254,57.274809,-37.549618,23.236641,1
14,0.551,0.251221,-1.234131,-0.072266,61.015267,-44.679389,21.305344,1
14,0.556,0.222168,-1.32959,-0.063721,50.335878,-45.992366,19.954198,1
14,0.562,0.21167,-1.244385,-0.137451,54.137405,-44.335878,19.10687,1
14,0.573,0.209229,-1.162109,-0.109375,52.015267,-22.557252,17.0,1
14,0.578,0.133301,-1.112549,-0.097168,41.10687,-7.885496,16.534351,1
14,0.583,0.104492,-1.254395,-0.256348,34.312977,5.80916,17.343511,1
14,0.589,0.087158,-1.2229,-0.358643,30.351145,20.664122,17.916031,1
14,0.595,0.036133,-1.265625,-0.468506,21.946565,30.977099,18.503817,1
14,0.601,0.095947,-1.124268,-0.626221,20.48855,33.282443,18.145038,1
14,0.606,0.167969,-1.103027,-0.630127,20.870229,29.748092,16.374046,1
14,0.612,0.222168,-1.104248,-0.54248,10.900763,24.870229,13.229008,1
14,0.617,0.249023,-1.053711,-0.559082,9.51145,20.633588,10.038168,1
14,0.628,0.241943,-0.983887,-0.523926,-0.427481,18.160305,3.473282,1
14,0.633,0.259766,-0.985596,-0.520264,-8.122137,15.740458,0.740458,1
14,0.64,0.272705,-0.975098,-0.520752,-16.480916,14.21374,-2.038168,1
14,0.645,0.281738,-0.971436,-0.533691,-24.015267,8.206107,-4.801527,1
14,0.651,0.270996,-0.962646,-0.534424,-31.648855,2.343511,-6.641221,1
14,0.656,0.293457,-0.962402,-0.532471,-37.114504,-7.343511,-8.832061,1
14,0.661,0.292969,-0.954346,-0.565186,-40.664122,-18.473282,-10.343511,1
14,0.667,0.262695,-0.960938,-0.51001,-43.633588,-26.160305,-11.824427,1
14,0.672,0.272705,-0.976562,-0.482178,-45.793893,-35.053435,-13.152672,1
14,0.684,0.002197,0.047852,0.513916,-68.366412,-37.954198,15.938931,1
14,0.689,0.001465,0.5,1.016113,-65.908397,-56.59542,33.992366,1
14,0.694,0.064453,0.438477,0.536133,-78.0,-54.59542,35.427481,1
14,0.7,0.195068,-1.056641,-0.343506,-82.908397,-57.839695,-19.587786,1
14,0.706,0.199463,-1.06543,-0.261963,-84.503817,-59.885496,-20.816794,1
14,0.711,0.195801,-1.033691,-0.251953,-83.450382,-66.152672,-22.572519,1
14,0.717,0.16748,-1.087402,-0.189209,-88.473282,-66.083969,-23.763359,1
14,0.723,0.167725,-1.033936,-0.171143,-92.175573,-67.572519,-24.480916,1
14,0.729,0.161621,-1.032227,-0.169189,-96.167939,-70.51145,-24.847328,1
14,0.739,0.121582,-1.0896,-0.08374,-101.10687,-71.549618,-24.717557,1
14,0.745,0.119873,-1.091553,-0.061768,-104.801527,-70.748092,-24.167939,1
14,0.75,0.126953,-1.057617,-0.044678,-104.969466,-71.557252,-23.412214,1
14,0.756,0.12085,-1.032471,-0.008057,-103.603053,-68.557252,-23.152672,1
14,0.761,0.119141,-1.039795,-0.020264,-109.396947,-68.19084,-22.396947,1
14,0.773,0.118652,-1.081543,-0.006592,-114.183206,-66.19084,-20.648855,1
14,0.778,0.126465,-1.078613,-0.004395,-114.908397,-66.114504,-19.923664,1
14,0.784,0.134277,-1.090576,0.013672,-115.793893,-64.908397,-18.908397,1
14,0.789,0.125244,-1.129639,0.052002,-123.122137,-65.244275,-17.801527,1
14,0.795,0.12915,-1.071289,0.055664,-111.099237,-64.793893,-17.396947,1
14,0.8,0.127441,-1.077881,0.091797,-114.229008,-62.923664,-17.908397,1
14,0.806,0.147949,-1.181152,0.109863,-116.557252,-62.076336,-17.770992,1
14,0.817,0.12915,-1.017822,0.062012,-118.816794,-60.763359,-19.946565,1
14,0.823,0.131348,-0.984619,0.077393,-113.435115,-62.29771,-21.48855,1
14,0.828,0.12085,-1.036377,0.150879,-112.007634,-54.358779,-22.740458,1
14,0.834,0.130859,-1.040283,0.165283,-113.099237,-49.816794,-24.122137,1
14,0.839,0.073975,-1.007568,0.134766,-109.320611,-44.70229,-24.656489,1
14,0.844,0.029297,-0.98877,0.210938,-106.946565,-36.549618,-24.938931,1
14,0.856,-0.007568,-1.030762,0.176025,-105.946565,-25.801527,-22.091603,1
14,0.862,-0.023438,-1.019775,0.206787,-99.114504,-16.648855,-20.51145,1
14,0.867,-0.025635,-1.012695,0.164062,-97.748092,-11.48855,-18.244275,1
14,0.873,-0.012207,-1.049805,0.151367,-95.679389,-9.114504,-16.312977,1
14,0.878,-0.006592,-1.039551,0.159912,-88.961832,-2.748092,-14.40458,1
14,0.883,0.020264,-1.038818,0.134033,-86.267176,-0.885496,-12.679389,1
14,0.889,0.030762,-0.985107,0.175537,-77.763359,-0.099237,-11.435115,1
14,0.895,0.055664,-1.02002,0.155273,-77.961832,0.19084,-10.984733,1
14,0.906,0.112061,-0.966309,0.15332,-68.549618,0.977099,-10.442748,1
14,0.912,0.103516,-0.922363,0.127686,-63.48855,-1.312977,-10.610687,1
14,0.917,0.10083,-0.913574,0.190674,-60.587786,2.259542,-10.59542,1
14,0.922,0.116699,-0.897705,0.129883,-55.564885,-0.633588,-11.076336,1
15,0.177,0.195312,-1.187256,-0.057373,44.022901,-7.091603,29.030534,1
15,0.182,0.208496,-1.203613,-0.066162,49.870229,-10.206107,27.885496,1
15,0.188,0.253174,-1.216797,-0.089844,53.877863,-16.122137,26.381679,1
15,0.193,0.229004,-1.255371,-0.087158,48.778626,-20.732824,24.618321,1
15,0.199,0.241699,-1.279297,-0.102783,54.206107,-21.549618,24.053435,1
15,0.21,0.178467,-1.237305,-0.014404,55.946565,-20.374046,22.664122,1
15,0.216,0.237305,-1.246338,-0.078369,56.251908,-19.251908,22.778626,1
15,0.221,0.258301,-1.282227,-0.05127,48.335878,-15.465649,21.763359,1
15,0.227,0.306641,-1.19043,-0.078125,56.534351,-16.076336,20.244275,1
15,0.232,0.294922,-1.221436,-0.04834,50.59542,-19.641221,18.068702,1
15,0.237,0.260498,-1.200928,-0.091797,57.862595,-20.687023,15.824427,1
15,0.244,0.151367,-1.150146,-0.093262,48.274809,-13.145038,14.137405,1
15,0.255,0.048584,-1.236084,-0.223877,34.351145,4.51145,12.534351,1
15,0.26,0.087646,-1.137695,-0.383545,30.290076,17.229008,11.931298,1
15,0.266,0.100342,-1.191895,-0.558594,16.351145,28.916031,10.419847,1
15,0.271,0.148193,-1.11377,-0.757324,9.496183,39.694656,8.824427,1
15,0.276,0.152344,-1.094238,-0.740479,1.671756,40.580153,6.389313,1
15,0.283,0.210205,-1.069092,-0.714111,-0.053435,35.80916,2.763359,1
15,0.288,0.20874,-1.004883,-0.674316,-7.541985,33.335878,-1.78626,1
15,0.294,0.209473,-0.965332,-0.650879,-16.160305,27.961832,-6.221374,1
15,0.299,0.218506,-0.901855,-0.618164,-23.427481,27.29771,-10.030534,1
15,0.31,0.209229,-0.890625,-0.616455,-39.89313,19.961832,-16.114504,1
15,0.315,0.207275,-0.87915,-0.565674,-49.007634,15.030534,-18.603053,1
15,0.321,0.216309,-0.923584,-0.568115,-59.984733,6.572519,-20.641221,1
15,0.327,0.204102,-0.936035,-0.5354,-64.648855,0.083969,-21.549618,1
15,0.333,0.184082,-0.949951,-0.508301,-70.885496,-7.694656,-22.564885,1
15,0.338,0.179443,-0.972412,-0.48877,-76.89313,-15.068702,-22.312977,1
15,0.344,0.164551,-0.987549,-0.423096,-81.19084,-18.740458,-21.610687,1
15,0.354,0.158691,-1.002441,-0.379395,-82.748092,-32.236641,-20.603053,1
15,0.36,0.145752,-1.004395,-0.350586,-83.061069,-37.427481,-20.427481,1
15,0.365,0.156006,-1.010986,-0.304932,-83.732824,-42.48855,-20.015267,1
15,0.372,0.13208,-1.008545,-0.233154,-100.70229,-41.137405,-20.389313,1
15,0.377,0.151367,-0.994141,-0.279053,-95.526718,-48.389313,-20.137405,1
15,0.383,0.115479,-1.018066,-0.162109,-97.770992,-48.221374,-20.480916,1
15,0.388,0.102539,-1.04248,-0.142822,-104.366412,-49.961832,-20.70229,1
15,0.399,0.106445,-1.012207,-0.130859,-102.946565,-53.412214,-21.274809,1
15,0.404,0.083008,-1.027344,-0.085938,-106.251908,-54.10687,-21.206107,1
15,0.411,0.076172,-1.023193,-0.051025,-105.206107,-53.870229,-20.847328,1
15,0.416,0.075684,-1.033447,-0.023682,-109.549618,-50.21374,-20.351145,1
15,0.422,0.087891,-0.987549,-0.046875,-107.732824,-48.931298,-20.061069,1
15,0.427,0.087402,-1.027344,-0.067383,-110.419847,-47.038168,-19.694656,1
15,0.438,0.134033,-1.070557,-0.032227,-113.519084,-43.473282,-18.396947,1
15,0.443,0.125732,-1.095215,-0.049316,-118.259542,-43.954198,-17.290076,1
15,0.449,0.139648,-1.09082,-0.012451,-114.496183,-43.526718,-17.229008,1
15,0.455,0.149414,-1.07251,0.007324,-113.954198,-42.709924,-17.267176,1
15,0.46,0.147705,-1.117432,0.023438,-116.290076,-41.748092,-17.091603,1
15,0.466,0.165771,-1.130859,0.004883,-117.961832,-43.717557,-17.503817,1
15,0.471,0.171143,-1.10376,0.062256,-117.580153,-41.412214,-17.900763,1
15,0.482,0.147949,-1.130615,0.115479,-112.274809,-35.59542,-19.114504,1
15,0.488,0.164307,-1.049316,0.037354,-111.366412,-35.21374,-20.664122,1
15,0.493,0.164307,-1.008545,0.044678,-110.221374,-32.274809,-21.358779,1
15,0.499,0.141357,-1.026367,0.053467,-106.70229,-25.70229,-21.862595,1
15,0.505,0.108643,-1.016113,0.052734,-106.435115,-21.312977,-22.80916,1
15,0.51,0.097412,-1.043457,-0.00415,-107.29771,-17.290076,-22.687023,1
15,0.516,0.070312,-1.040527,0.030029,-106.335878,-11.099237,-22.694656,1
15,0.527,0.042236,-1.00293,0.027832,-102.633588,-3.038168,-22.152672,1
15,0.532,0.014893,-1.030762,0.046875,-101.412214,4.167939,-20.946565,1
15,0.537,0.029053,-0.998291,0.102783,-96.572519,8.381679,-20.396947,1
15,0.544,0.030518,-0.973389,0.13501,-94.183206,13.145038,-19.854962,1
15,0.549,0.038574,-0.955078,0.149414,-87.80916,16.145038,-18.908397,1
15,0.555,0.029541,-0.948486,0.162109,-83.473282,20.625954,-17.312977,1
15,0.56,0.026367,-0.958252,0.171143,-81.450382,24.40458,-16.641221,1
15,0.566,0.037109,-0.94043,0.162598,-74.770992,27.061069,-15.603053,1
15,0.571,0.042725,-0.947998,0.176514,-70.396947,29.221374,-14.312977,1
16,0.41,0.191162,-1.203857,-0.142334,70.763359,-16.419847,38.221374,1
16,0.415,0.224854,-1.222168,-0.184814,75.755725,-25.358779,36.564885,1
16,0.427,0.296387,-1.304199,-0.028076,81.091603,-38.374046,30.854962,1
16,0.433,0.317139,-1.239014,0.0,79.442748,-37.854962,27.847328,1
16,0.438,0.279053,-1.337891,-0.014893,80.526718,-43.89313,25.427481,1
16,0.443,0.226562,-1.362549,0.009766,81.496183,-39.19084,24.0,1
16,0.449,0.206787,-1.332764,0.0979,74.442748,-30.862595,24.389313,1
16,0.454,0.216797,-1.379395,0.035156,71.725191,-27.274809,24.236641,1
16,0.466,0.191895,-1.359619,0.00708,62.916031,-7.412214,24.671756,1
16,0.472,0.199219,-1.263916,-0.037109,61.664122,4.961832,25.236641,1
16,0.477,0.161133,-1.248291,-0.0979,58.824427,12.206107,25.389313,1
16,0.482,0.192383,-1.197754,-0.13208,56.083969,19.076336,24.503817,1
16,0.488,0.19458,-1.236572,-0.20752,50.083969,26.206107,23.244275,1
16,0.493,0.176514,-1.229248,-0.281494,38.435115,37.267176,21.374046,1
16,0.499,0.15625,-1.180176,-0.520264,32.770992,46.458015,19.900763,1
16,0.51,0.27832,-1.101562,-0.634766,23.435115,54.129771,14.679389,1
16,0.516,0.315186,-1.050293,-0.590576,13.78626,51.877863,10.992366,1
16,0.521,0.307129,-1.03418,-0.627686,8.351145,47.10687,6.900763,1
16,0.527,0.308838,-0.954834,-0.623535,4.229008,46.328244,2.160305,1
16,0.532,0.324951,-0.932373,-0.60083,-5.259542,40.664122,-2.083969,1
16,0.538,0.336914,-0.919678,-0.618896,-13.938931,32.473282,-6.664122,1
16,0.543,0.3479,-0.918945,-0.61084,-24.534351,24.244275,-11.099237,1
16,0.549,0.341309,-0.915039,-0.645996,-36.038168,16.427481,-14.343511,1
16,0.56,0.305176,-0.922852,-0.622559,-54.251908,-7.152672,-19.274809,1
16,0.566,0.312256,-0.926514,-0.623047,-64.167939,-18.610687,-21.007634,1
16,0.571,0.309814,-0.926758,-0.608887,-70.984733,-29.694656,-21.954198,1
16,0.577,0.266602,-0.919922,-0.548584,-76.557252,-39.931298,-22.572519,1
16,0.582,0.24292,-0.908936,-0.511963,-80.007634,-47.381679,-22.870229,1
16,0.587,0.226562,-0.909668,-0.44751,-82.969466,-53.145038,-23.198473,1
16,0.599,0.17627,-1.000488,-0.405762,-101.48855,-64.381679,-24.625954,1
16,0.605,0.181641,-0.99707,-0.386475,-100.458015,-70.78626,-25.435115,1
16,0.61,0.180664,-0.986572,-0.2771,-104.068702,-74.519084,-26.610687,1
16,0.616,0.16333,-1.006348,-0.288818,-109.274809,-81.480916,-28.083969,1
16,0.621,0.145264,-1.055176,-0.232422,-114.763359,-82.412214,-28.610687,1
16,0.626,0.145508,-1.026611,-0.227539,-119.412214,-85.251908,-29.526718,1
16,0.638,0.129883,-1.0625,-0.165283,-123.946565,-79.480916,-30.038168,1
16,0.644,0.147705,-1.108154,-0.177734,-130.832061,-82.70229,-30.358779,1
16,0.649,0.126465,-1.131348,-0.115234,-135.183206,-81.534351,-30.274809,1
16,0.655,0.10498,-1.106201,-0.10498,-139.580153,-78.679389,-30.206107,1
16,0.66,0.103271,-1.084229,-0.045898,-140.389313,-78.496183,-29.366412,1
16,0.671,0.101562,-1.130615,0.030273,-147.091603,-72.038168,-27.534351,1
16,0.677,0.10376,-1.165527,0.041504,-152.358779,-68.267176,-26.679389,1
16,0.683,0.117188,-1.107422,0.060303,-146.496183,-66.068702,-25.847328,1
16,0.688,0.140625,-1.168213,0.021729,-150.732824,-63.473282,-24.709924,1
16,0.694,0.131592,-1.10791,0.054199,-148.847328,-62.129771,-23.916031,1
16,0.699,0.130859,-1.231934,0.055664,-157.832061,-60.40458,-22.328244,1
16,0.71,0.114502,-1.12207,0.05127,-146.022901,-54.435115,-20.603053,1
16,0.715,0.101318,-1.114014,0.042969,-149.496183,-51.251908,-19.473282,1
16,0.722,0.106689,-1.11792,0.118408,-147.908397,-50.053435,-18.183206,1
16,0.727,0.084961,-1.147705,0.089111,-149.0,-48.122137,-18.137405,1
16,0.733,0.074219,-1.084961,0.126465,-138.259542,-43.916031,-17.603053,1
16,0.738,0.108887,-1.173096,0.114746,-142.59542,-42.946565,-17.374046,1
16,0.749,0.077393,-1.106445,0.141113,-138.129771,-34.51145,-17.496183,1
16,0.754,0.076904,-1.097412,0.14502,-136.496183,-30.450382,-17.450382,1
16,0.761,0.096924,-1.096436,0.13623,-132.969466,-27.366412,-17.519084,1
16,0.766,0.085449,-1.115234,0.150146,-132.557252,-22.374046,-17.618321,1
16,0.772,0.070801,-1.095703,0.19873,-130.51145,-14.755725,-17.885496,1
16,0.782,0.037354,-1.048584,0.250977,-121.267176,-7.633588,-17.534351,1
16,0.788,0.078613,-1.058105,0.215332,-118.290076,-5.984733,-17.251908,1
16,0.793,0.045166,-1.04541,0.252686,-114.832061,-2.748092,-16.717557,1
16,0.799,0.066406,-1.006348,0.254395,-107.572519,0.206107,-15.496183,1
16,0.805,0.086914,-0.994141,0.250977,-100.496183,3.908397,-14.618321,1
16,0.81,0.076904,-0.979248,0.25293,-95.21374,5.854962,-13.839695,1
16,0.821,0.107422,-0.914307,0.227051,-78.374046,8.496183,-11.641221,1
17,0.218,0.100342,-1.213623,-0.128174,55.564885,7.480916,29.954198,1
17,0.223,0.145752,-1.200439,-0.121582,62.206107,6.022901,30.625954,1
17,0.234,0.186279,-1.239258,-0.091309,66.160305,1.824427,31.198473,1
17,0.24,0.187744,-1.217041,-0.043213,69.328244,1.763359,30.564885,1
17,0.245,0.199951,-1.26001,-0.081787,72.030534,-2.290076,30.061069,1
17,0.251,0.207031,-1.289795,-0.100342,70.145038,-0.305344,29.465649,1
17,0.257,0.229248,-1.262695,-0.030518,76.145038,-0.29771,28.038168,1
17,0.262,0.25293,-1.331543,-0.034668,72.045802,-0.671756,27.351145,1
17,0.268,0.263428,-1.337402,-0.05835,73.320611,-1.564885,26.091603,1
17,0.273,0.222412,-1.301025,-0.030762,72.435115,-4.030534,24.870229,1
17,0.279,0.212646,-1.306152,-0.09375,69.709924,-6.801527,24.480916,1
17,0.29,0.218994,-1.368164,-0.130615,66.122137,-4.282443,22.320611,1
17,0.296,0.222656,-1.223633,-0.251465,66.305344,0.40458,21.396947,1
17,0.301,0.177246,-1.249268,-0.296143,53.305344,13.496183,20.450382,1
17,0.307,0.148193,-1.241699,-0.375244,46.381679,27.824427,20.496183,1
17,0.312,0.181396,-1.207275,-0.475098,44.053435,36.290076,20.412214,1
17,0.318,0.145752,-1.214844,-0.507324,34.274809,36.045802,19.351145,1
17,0.323,0.194092,-1.205811,-0.575928,31.29771,33.458015,17.832061,1
17,0.328,0.196045,-1.196533,-0.557373,21.755725,29.938931,15.900763,1
17,0.335,0.2146,-1.099854,-0.564697,20.030534,25.442748,13.519084,1
17,0.34,0.233154,-1.054688,-0.556641,18.19084,20.236641,10.801527,1
17,0.346,0.251953,-1.056885,-0.520508,8.984733,19.251908,8.320611,1
17,0.357,0.255859,-1.006592,-0.535156,-2.717557,16.801527,2.389313,1
17,0.362,0.258789,-1.005859,-0.507324,-12.564885,13.40458,-0.740458,1
17,0.367,0.24585,-1.032715,-0.530762,-22.083969,9.625954,-3.503817,1
17,0.373,0.272461,-0.991211,-0.533691,-26.740458,6.381679,-5.816794,1
17,0.379,0.260986,-0.990234,-0.512451,-35.068702,1.519084,-8.160305,1
17,0.385,0.252686,-0.979004,-0.50708,-41.282443,-3.870229,-10.328244,1
17,0.39,0.257324,-0.974854,-0.504639,-46.366412,-8.244275,-12.038168,1
17,0.396,0.263184,-0.954834,-0.480713,-49.480916,-13.557252,-14.435115,1
17,0.401,0.252197,-0.944824,-0.455078,-54.10687,-17.603053,-16.160305,1
17,0.412,0.266602,-0.938232,-0.33252,-70.351145,-22.954198,-20.839695,1
17,0.418,0.25415,-0.956543,-0.397949,-73.412214,-30.664122,-23.267176,1
17,0.424,0.242432,-0.990723,-0.319824,-83.885496,-31.045802,-25.534351,1
17,0.429,0.238037,-0.965576,-0.355469,-90.969466,-36.732824,-27.839695,1
17,0.435,0.23584,-0.978271,-0.289795,-93.633588,-39.007634,-30.526718,1
17,0.44,0.211426,-1.033203,-0.278809,-102.656489,-43.725191,-32.839695,1
17,0.445,0.207275,-1.055664,-0.275391,-107.007634,-47.251908,-34.633588,1
17,0.456,0.186279,-1.073242,-0.188965,-119.015267,-50.496183,-37.320611,1
17,0.463,0.189941,-1.084229,-0.197998,-118.21374,-52.587786,-38.129771,1
17,0.468,0.180664,-1.092041,-0.127197,-122.458015,-54.099237,-38.625954,1
17,0.474,0.188232,-1.091553,-0.085205,-127.816794,-55.366412,-38.549618,1
17,0.479,0.165283,-1.089355,-0.071045,-128.755725,-57.450382,-38.587786,1
17,0.49,0.163818,-1.038818,-0.019775,-136.007634,-58.51145,-38.671756,1
17,0.495,0.151367,-1.142822,0.013428,-138.129771,-58.587786,-38.351145,1
17,0.501,0.137207,-1.151855,0.054688,-145.396947,-57.320611,-38.145038,1
17,0.507,0.137207,-1.087402,0.047119,-143.419847,-60.938931,-37.633588,1
17,0.513,0.122559,-1.112305,0.089111,-141.70229,-60.587786,-36.908397,1
17,0.518,0.134766,-1.079834,0.125732,-142.022901,-61.854962,-36.160305,1
17,0.529,0.097412,-1.025391,0.102051,-139.022901,-65.282443,-34.534351,1
17,0.534,0.11084,-1.033936,0.164795,-143.160305,-63.229008,-33.80916,1
17,0.54,0.100342,-1.001953,0.149902,-142.038168,-65.526718,-32.267176,1
17,0.546,0.075439,-1.010254,0.165039,-144.145038,-61.984733,-31.770992,1
17,0.552,0.074707,-1.03833,0.185547,-139.458015,-62.48855,-31.29771,1
17,0.562,0.096191,-1.088379,0.17334,-143.740458,-61.496183,-29.709924,1
17,0.568,0.092041,-1.064697,0.241455,-140.816794,-55.549618,-29.48855,1
17,0.573,0.101562,-1.031006,0.229736,-137.137405,-51.847328,-28.80916,1
17,0.579,0.08667,-0.993896,0.227295,-127.572519,-48.89313,-28.900763,1
17,0.584,0.082764,-1.061279,0.214844,-132.48855,-45.870229,-27.335878,1
17,0.596,0.080811,-1.049072,0.186035,-124.625954,-42.946565,-24.572519,1
17,0.601,0.080566,-1.072998,0.213623,-123.633588,-39.152672,-23.755725,1
17,0.607,0.099609,-1.046387,0.209717,-119.358779,-36.473282,-23.480916,1
17,0.612,0.113525,-0.995361,0.208252,-115.328244,-34.10687,-23.251908,1
17,0.618,0.110107,-0.990234,0.207031,-113.045802,-31.290076,-23.480916,1
18,0.172,0.219238,-1.131348,-0.269043,30.091603,22.015267,-3.801527,1
18,0.19,0.177246,-1.19043,-0.178467,33.007634,11.679389,-6.648855,1
18,0.201,0.088135,-1.217041,-0.249512,30.832061,4.282443,-6.137405,1
18,0.211,-0.009521,-1.182617,-0.409424,23.793893,-0.007634,-2.923664,1
18,0.223,-0.011963,-1.115479,-0.547607,12.526718,-0.229008,-2.137405,1
18,0.239,-0.078857,-1.00415,-0.612305,-4.839695,1.725191,-1.854962,1
18,0.25,-0.092773,-0.976562,-0.61084,-19.465649,5.389313,0.450382,1
18,0.262,-0.07666,-1.010742,-0.593506,-34.122137,5.541985,2.519084,1
18,0.273,-0.052734,-1.060303,-0.581543,-47.290076,3.351145,4.503817,1
18,0.284,-0.039551,-1.075684,-0.561768,-58.328244,-0.358779,7.038168,1
18,0.295,-0.027344,-1.081055,-0.514648,-67.076336,-6.244275,9.725191,1
18,0.312,-0.031982,-1.106201,-0.436279,-77.954198,-13.916031,13.312977,1
18,0.323,-0.00293,-1.120117,-0.36499,-83.793893,-15.847328,14.496183,1
18,0.334,0.015625,-1.11084,-0.267334,-87.793893,-17.10687,14.725191,1
18,0.346,0.022217,-1.125977,-0.158936,-89.961832,-12.778626,14.534351,1
18,0.362,0.062988,-1.13623,-0.158691,-93.801527,-15.206107,14.679389,1
18,0.373,0.049561,-1.123535,-0.140137,-95.160305,-12.725191,14.496183,1
18,0.384,0.061279,-1.115723,-0.125244,-95.847328,-11.40458,14.358779,1
18,0.401,0.043457,-1.121826,-0.077881,-93.847328,-9.290076,14.954198,1
18,0.412,0.035156,-1.126221,-0.041992,-91.862595,-5.473282,15.389313,1
18,0.423,0.04248,-1.123291,-0.037354,-89.061069,0.78626,16.244275,1
18,0.434,0.051514,-1.121338,-0.043457,-86.396947,6.969466,16.312977,1
18,0.451,0.067139,-1.099609,-0.057373,-83.732824,10.221374,15.832061,1
18,0.462,0.103271,-1.088623,-0.05249,-83.778626,8.480916,14.679389,1
18,0.473,0.087891,-1.032227,0.070557,-75.671756,4.175573,14.053435,1
18,0.484,0.117432,-1.002686,0.14624,-66.564885,2.59542,13.458015,1
18,0.495,0.142334,-0.991699,0.086426,-59.961832,2.282443,12.374046,1
18,0.506,0.115723,-0.983643,-0.02417,-58.030534,1.244275,11.633588,1
18,0.523,0.073486,-0.985107,-0.119385,-53.847328,-4.137405,11.717557,1
18,0.534,-0.017822,-0.986328,0.005371,-49.740458,-0.053435,12.618321,1
18,0.545,0.097168,-0.986816,-0.126465,-49.351145,-3.89313,12.969466,1
18,0.556,0.063965,-0.906494,-0.104492,-43.083969,-10.519084,12.381679,1
18,0.573,0.084717,-0.919678,-0.159912,-43.48855,-14.022901,11.969466,1
18,0.584,0.062256,-0.925537,-0.209229,-43.206107,-16.625954,12.480916,1
18,0.595,0.053223,-0.937012,-0.23584,-44.351145,-18.977099,12.328244,1
18,0.607,0.074463,-0.903809,-0.234619,-45.053435,-22.030534,10.961832,1
18,0.617,0.096191,-0.861328,-0.179199,-46.40458,-23.961832,9.274809,1
18,0.634,0.078613,-0.827393,-0.099121,-45.152672,-20.839695,7.587786,1
18,0.646,0.074951,-0.834717,-0.065186,-44.229008,-13.10687,6.679389,1
18,0.656,0.080078,-0.874268,-0.072266,-42.854962,-6.175573,6.045802,1
18,0.667,0.077148,-0.907471,-0.096924,-41.419847,-0.671756,5.740458,1
18,0.678,0.108398,-0.911377,-0.070801,-40.526718,-0.80916,5.358779,1
18,0.695,0.164062,-0.865234,0.000244,-33.847328,-3.496183,2.343511,1
18,0.706,0.155273,-0.845947,0.045654,-28.229008,-2.328244,0.343511,1
18,0.717,0.133789,-0.842529,0.055908,-20.259542,1.19084,-0.770992,1
18,0.729,0.100098,-0.865234,0.053955,-12.977099,6.931298,-1.465649,1
18,0.74,0.099365,-0.907959,0.006592,-5.030534,9.847328,-2.320611,1
18,0.751,0.125,-0.956787,-0.035645,3.320611,11.19084,-3.29771,1
18,0.762,0.149414,-0.991211,-0.070068,11.778626,8.519084,-4.580153,1
18,0.773,0.180176,-1.007568,-0.118652,20.435115,3.030534,-5.122137,1
18,0.79,0.167969,-0.982178,-0.176025,29.038168,-9.59542,-6.022901,1
18,0.8,0.139404,-0.947998,-0.218506,32.10687,-19.396947,-6.412214,1
18,0.811,0.136963,-0.935791,-0.237549,34.099237,-28.045802,-8.10687,1
18,0.823,0.135742,-0.943604,-0.213379,36.603053,-33.679389,-10.137405,1
18,0.834,0.149902,-0.966064,-0.19165,39.312977,-35.10687,-12.48855,1
18,0.85,0.144775,-1.009521,-0.196289,42.19084,-35.152672,-15.625954,1
18,0.862,0.128418,-0.995605,-0.243652,42.916031,-31.839695,-16.885496,1
18,0.873,0.140625,-0.979492,-0.272949,40.931298,-29.709924,-18.709924,1
18,0.889,0.094971,-1.051025,-0.619385,34.480916,-19.70229,-22.396947,1
18,0.901,-0.262207,-1.168701,-1.071045,18.198473,8.770992,-18.984733,1
18,0.912,-0.455566,-1.288818,-1.219482,1.259542,31.076336,-15.091603,1
18,0.928,0.066162,-1.25708,-0.014893,25.946565,-2.137405,-19.931298,1
18,0.939,0.21582,-1.270264,0.475586,54.564885,-26.015267,-19.328244,1
18,0.951,0.183594,-1.273682,0.338379,75.244275,-30.312977,-19.290076,1
19,0.416,0.233643,-1.190674,-0.300537,51.480916,25.083969,4.183206,1
19,0.422,0.281738,-1.261963,-0.333008,49.748092,20.450382,2.389313,1
19,0.427,0.260742,-1.32959,-0.28125,49.534351,14.503817,1.40458,1
19,0.433,0.19043,-1.317139,-0.325195,49.931298,6.305344,0.816794,1
19,0.438,0.178467,-1.339111,-0.283447,53.580153,-1.312977,-0.59542,1
19,0.444,0.143066,-1.315674,-0.294678,54.748092,-5.610687,-1.229008,1
19,0.45,0.07373,-1.279541,-0.331055,54.534351,-11.167939,-1.984733,1
19,0.455,0.045166,-1.268311,-0.418701,51.954198,-15.19084,-2.450382,1
19,0.466,0.050537,-1.156006,-0.615723,39.679389,-23.610687,-4.931298,1
19,0.472,0.044189,-1.119385,-0.674805,32.679389,-25.78626,-6.618321,1
19,0.477,0.001953,-1.06543,-0.67041,26.572519,-27.938931,-8.045802,1
19,0.483,-0.049561,-1.044678,-0.646729,20.419847,-24.541985,-8.290076,1
19,0.488,-0.112061,-1.023682,-0.587158,13.709924,-17.259542,-7.061069,1
19,0.494,-0.127441,-1.023682,-0.581787,5.328244,-11.618321,-5.679389,1
19,0.5,-0.124268,-1.029053,-0.626953,-4.80916,-8.862595,-4.618321,1
19,0.511,-0.108154,-1.005371,-0.73877,-25.053435,-6.78626,-3.442748,1
19,0.516,-0.117676,-0.989258,-0.733154,-34.114504,-4.70229,-2.908397,1
19,0.521,-0.143066,-0.969482,-0.715332,-41.89313,-1.335878,-1.465649,1
19,0.527,-0.162598,-0.958008,-0.681885,-50.137405,1.824427,0.236641,1
19,0.533,-0.171631,-0.955566,-0.633057,-57.030534,5.78626,2.236641,1
19,0.539,-0.16626,-0.952881,-0.589844,-64.526718,7.946565,4.473282,1
19,0.544,-0.15625,-0.974121,-0.567627,-71.503817,9.923664,6.015267,1
19,0.55,-0.125488,-0.980469,-0.532471,-77.603053,11.312977,7.229008,1
19,0.56,-0.081787,-1.030518,-0.456055,-88.832061,13.381679,8.664122,1
19,0.566,-0.061523,-1.026611,-0.410645,-92.900763,13.572519,8.847328,1
19,0.571,-0.045654,-1.045654,-0.364014,-95.740458,13.541985,9.152672,1
19,0.578,-0.047363,-1.063965,-0.317627,-98.70229,13.152672,9.526718,1
19,0.583,-0.039551,-1.070068,-0.292969,-101.717557,12.839695,10.389313,1
19,0.589,-0.045166,-1.0979,-0.279541,-104.625954,11.755725,11.076336,1
19,0.594,-0.039551,-1.102295,-0.25293,-107.221374,10.748092,11.801527,1
19,0.599,-0.036133,-1.104492,-0.239502,-108.625954,8.877863,12.503817,1
19,0.61,-0.021973,-1.105469,-0.126221,-108.251908,6.381679,13.709924,1
19,0.616,-0.017822,-1.101562,-0.169189,-109.099237,3.160305,13.923664,1
19,0.622,-0.006348,-1.0896,-0.15332,-108.549618,0.465649,13.977099,1
19,0.628,-0.002441,-1.085693,-0.143066,-107.870229,-2.030534,14.51145,1
19,0.633,0.002197,-1.079834,-0.118652,-107.167939,-4.122137,14.610687,1
19,0.638,0.004883,-1.07373,-0.106445,-106.366412,-6.045802,14.832061,1
19,0.644,0.001709,-1.062988,-0.0979,-105.412214,-7.0,14.992366,1
19,0.649,0.001709,-1.05542,-0.095947,-104.229008,-8.038168,15.633588,1
19,0.661,-0.003174,-1.044189,-0.075439,-101.580153,-8.091603,16.755725,1
19,0.667,-0.009521,-1.036621,-0.082275,-100.167939,-7.328244,17.610687,1
19,0.672,0.01709,-1.037842,-0.049072,-98.183206,-7.274809,17.877863,1
19,0.677,0.036621,-1.047607,-0.053223,-96.954198,-7.977099,17.694656,1
19,0.683,0.036621,-1.034668,-0.052734,-96.152672,-8.51145,17.694656,1
19,0.688,0.040771,-1.030518,-0.034424,-94.396947,-9.70229,17.854962,1
19,0.694,0.050049,-1.032471,-0.016357,-93.519084,-9.496183,17.725191,1
19,0.699,0.050049,-1.036621,-0.011963,-93.312977,-11.137405,17.015267,1
19,0.706,0.069092,-1.049561,0.004639,-93.358779,-10.229008,16.587786,1
19,0.716,0.099121,-1.045166,0.033691,-91.274809,-11.80916,15.961832,1
19,0.722,0.162598,-1.068359,0.016846,-92.885496,-16.770992,15.320611,1
19,0.727,0.142578,-1.043213,0.066406,-91.038168,-17.969466,14.366412,1
19,0.733,0.141113,-1.018799,0.097656,-88.236641,-18.89313,14.206107,1
19,0.738,0.105225,-0.991943,0.109375,-87.648855,-20.946565,14.145038,1
19,0.744,0.092041,-0.969971,0.125488,-84.427481,-18.992366,14.954198,1
19,0.75,0.089355,-0.967773,0.132812,-81.900763,-18.618321,16.045802,1
19,0.755,-0.030762,-0.958252,0.211914,-79.274809,-14.358779,17.312977,1
19,0.766,0.139648,-0.977295,0.036377,-76.587786,-5.206107,18.770992,1
19,0.772,0.153564,-0.966797,0.005127,-77.21374,-10.625954,17.847328,1
19,0.777,0.119629,-0.948486,0.040039,-71.625954,-12.351145,17.21374,1
19,0.783,0.094238,-0.959473,0.090088,-69.854962,-12.183206,16.435115,1
19,0.789,0.102783,-0.978516,0.106201,-68.015267,-8.694656,15.870229,1
19,0.794,0.091797,-0.997559,0.073486,-66.412214,-5.572519,15.412214,1
19,0.8,0.076416,-1.00708,0.064941,-63.396947,-2.916031,14.900763,1
19,0.805,0.066895,-1.017334,0.058594,-59.572519,0.885496,14.671756,1
20,0.786,0.057373,-1.197998,-0.105225,47.900763,-17.366412,19.854962,1
20,0.797,0.001221,-1.19751,-0.174072,41.48855,-28.618321,20.541985,1
20,0.808,-0.024902,-1.166992,-0.184814,33.061069,-38.083969,20.564885,1
20,0.824,-0.011963,-1.091309,-0.195312,17.206107,-39.557252,15.267176,1
20,0.836,-0.012451,-1.060303,-0.22876,4.862595,-36.251908,9.091603,1
20,0.847,-0.019287,-1.042969,-0.258057,-8.709924,-32.0,3.030534,1
20,0.858,-0.033203,-1.030029,-0.268311,-21.366412,-28.10687,-2.251908,1
20,0.875,0.010742,-1.04126,-0.258057,-35.343511,-24.335878,-6.656489,1
20,0.886,0.053467,-1.062744,-0.274902,-41.89313,-25.167939,-8.725191,1
20,0.897,0.089844,-1.068848,-0.307617,-46.099237,-30.061069,-9.954198,1
20,0.914,0.060303,-1.046631,-0.345703,-50.78626,-42.618321,-10.641221,1
20,0.925,0.058838,-1.006104,-0.351318,-51.923664,-52.21374,-10.442748,1
20,0.936,0.070068,-0.981201,-0.333496,-52.534351,-58.870229,-10.496183,1
20,0.952,0.046631,-0.973389,-0.318848,-54.427481,-61.419847,-10.763359,1
20,0.964,0.011475,-1.001221,-0.317871,-55.938931,-59.061069,-10.419847,1
20,0.975,-0.002686,-1.013428,-0.30835,-57.335878,-55.015267,-9.229008,1
20,0.991,0.013672,-1.018066,-0.301514,-58.244275,-50.229008,-6.89313,1
20,1.003,0.017578,-1.022461,-0.293213,-58.564885,-48.145038,-5.580153,1
20,1.014,0.026611,-1.028564,-0.305908,-58.824427,-44.679389,-4.80916,1
20,1.03,0.031006,-1.060059,-0.300293,-60.267176,-38.282443,-5.473282,1
20,1.042,0.017578,-1.060059,-0.279541,-60.908397,-34.137405,-5.755725,1
20,1.053,0.014893,-1.053711,-0.268066,-62.053435,-27.770992,-5.671756,1
20,1.069,0.029053,-1.050049,-0.285645,-63.526718,-19.007634,-4.854962,1
20,1.08,0.050049,-1.046143,-0.269043,-64.625954,-15.389313,-5.076336,1
20,1.092,0.056885,-1.053955,-0.257812,-65.282443,-12.656489,-5.763359,1
20,1.108,0.049316,-1.047119,-0.226318,-65.908397,-9.366412,-6.51145,1
20,1.119,0.055664,-1.047607,-0.2146,-66.29771,-7.167939,-6.839695,1
20,1.131,0.066406,-1.054199,-0.220703,-67.10687,-5.694656,-7.862595,1
20,1.147,0.059082,-1.056152,-0.215088,-68.40458,-6.0,-9.725191,1
20,1.158,0.050781,-1.041748,-0.199707,-68.877863,-6.587786,-10.198473,1
20,1.17,0.064209,-1.029541,-0.188232,-69.526718,-6.793893,-10.770992,1
20,1.181,0.049072,-1.005859,-0.179932,-69.259542,-7.351145,-11.641221,1
20,1.197,0.035156,-0.992188,-0.171875,-68.625954,-6.083969,-12.664122,1
20,1.208,0.027344,-1.01001,-0.167236,-67.343511,-5.122137,-13.29771,1
20,1.22,0.022217,-1.009521,-0.146484,-67.152672,-4.083969,-14.229008,1
20,1.231,0.025391,-1.020508,-0.143555,-66.977099,-3.122137,-14.641221,1
20,1.247,0.019775,-1.033203,-0.147217,-67.198473,-2.48855,-14.21374,1
20,1.259,0.036621,-1.034912,-0.133789,-67.954198,-4.267176,-14.656489,1
20,1.27,0.047607,-1.012939,-0.127197,-68.229008,-9.274809,-15.778626,1
20,1.286,0.040039,-0.963623,-0.089355,-66.977099,-16.015267,-16.625954,1
20,1.298,0.043701,-0.945801,-0.094482,-66.534351,-17.832061,-16.778626,1
20,1.308,0.050781,-0.961182,-0.103027,-65.038168,-19.526718,-17.335878,1
20,1.325,0.042969,-0.966553,-0.077881,-61.389313,-21.030534,-18.412214,1
20,1.336,0.029785,-0.959229,-0.091064,-57.358779,-18.358779,-18.396947,1
20,1.347,0.013184,-0.926514,-0.0896,-51.854962,-15.358779,-18.129771,1
20,1.358,0.003662,-0.89917,-0.091553,-46.717557,-9.564885,-18.129771,1
20,1.375,-0.003418,-0.889648,-0.118408,-40.473282,2.908397,-18.885496,1
20,1.386,-0.005371,-0.897949,-0.147217,-36.29771,11.832061,-19.717557,1
20,1.397,-0.000732,-0.891113,-0.128174,-32.0,19.931298,-20.198473,1
20,1.408,0.010742,-0.88208,-0.135498,-27.732824,25.870229,-19.610687,1
20,1.424,0.038086,-0.904053,-0.181641,-21.541985,33.259542,-18.870229,1
20,1.436,0.045898,-0.919678,-0.199463,-18.030534,33.465649,-18.625954,1
20,1.447,0.053955,-0.911133,-0.216309,-13.900763,32.351145,-18.832061,1
20,1.463,0.061768,-0.906982,-0.179932,-8.267176,32.618321,-18.938931,1
20,1.475,0.071533,-0.921631,-0.170654,-4.099237,32.312977,-19.396947,1
20,1.486,0.074707,-0.926025,-0.180908,-0.122137,30.267176,-19.793893,1
20,1.497,0.073242,-0.92041,-0.18042,4.122137,26.259542,-19.954198,1
20,1.514,0.039062,-0.891113,-0.120605,14.580153,17.534351,-18.045802,1
20,1.525,0.032715,-0.880859,-0.095459,23.603053,11.045802,-15.267176,1
20,1.536,0.04834,-0.887939,-0.101562,31.526718,4.984733,-12.473282,1
20,1.547,0.04541,-0.889893,-0.141602,38.114504,-3.793893,-10.450382,1
20,1.559,0.015137,-0.87085,-0.137451,44.083969,-14.129771,-8.770992,1
20,1.575,-0.01709,-0.846191,-0.117432,51.938931,-27.030534,-6.709924,1
20,1.586,0.278076,-1.008057,-0.679688,25.740458,10.137405,-11.496183,1
21,1.209,0.266846,-1.198975,-0.11792,65.480916,-15.748092,41.19084,1
21,1.22,0.270508,-1.327148,-0.250732,60.839695,-19.78626,33.732824,1
21,1.231,0.069092,-1.392578,-0.338135,54.015267,-13.679389,27.320611,1
21,1.248,0.112305,-1.39502,-0.42749,37.992366,2.801527,12.656489,1
21,1.259,0.235596,-1.254639,-0.377686,26.167939,-2.022901,-1.030534,1
21,1.27,0.222656,-1.093262,-0.344238,12.503817,-6.51145,-13.48855,1
21,1.281,0.187012,-1.038574,-0.401611,-5.038168,-4.877863,-22.633588,1
21,1.298,0.061035,-1.011475,-0.500488,-33.557252,-1.145038,-34.015267,1
21,1.309,-0.029297,-1.008545,-0.44751,-51.732824,2.29771,-38.061069,1
21,1.32,-0.078613,-1.006348,-0.360596,-68.633588,11.770992,-38.21374,1
21,1.332,-0.060547,-1.039551,-0.288086,-81.931298,16.427481,-36.175573,1
21,1.348,-0.008301,-1.085938,-0.253906,-93.732824,8.717557,-32.755725,1
21,1.359,0.040527,-1.12085,-0.247559,-98.618321,-5.442748,-31.412214,1
21,1.376,0.088135,-1.095947,-0.211914,-101.954198,-40.969466,-29.221374,1
21,1.387,0.11499,-1.064941,-0.177246,-102.282443,-64.938931,-28.305344,1
21,1.403,0.081787,-1.04126,-0.125977,-100.70229,-94.839695,-28.992366,1
21,1.415,0.008545,-1.076904,-0.12793,-100.618321,-105.251908,-29.183206,1
21,1.431,-0.06665,-1.111816,-0.105469,-100.633588,-104.778626,-27.503817,1
21,1.442,-0.075684,-1.118408,-0.077637,-101.282443,-96.366412,-26.145038,1
21,1.46,-0.071533,-1.108154,-0.078857,-103.641221,-83.099237,-24.984733,1
21,1.47,-0.063721,-1.093506,-0.081299,-105.992366,-72.40458,-24.580153,1
21,1.487,-0.063232,-1.075439,-0.113037,-109.832061,-57.229008,-24.21374,1
21,1.499,-0.062012,-1.057861,-0.088135,-110.40458,-46.061069,-25.526718,1
21,1.515,-0.077637,-1.030029,-0.055664,-107.969466,-27.412214,-29.114504,1
21,1.526,-0.063965,-1.024902,-0.056641,-105.709924,-12.038168,-31.671756,1
21,1.537,-0.053955,-1.017822,-0.071777,-103.099237,2.534351,-33.442748,1
21,1.554,-0.039551,-1.009277,-0.09082,-97.687023,19.877863,-34.862595,1
21,1.565,-0.034912,-0.987305,-0.070312,-92.160305,27.236641,-35.122137,1
21,1.581,0.00293,-0.972412,-0.056641,-82.717557,29.335878,-34.015267,1
21,1.593,0.029297,-0.97168,-0.085693,-76.610687,27.519084,-32.10687,1
21,1.604,0.04126,-0.963135,-0.110352,-71.053435,22.137405,-30.236641,1
21,1.615,0.041016,-0.932617,-0.095459,-64.007634,12.48855,-28.458015,1
21,1.632,0.036621,-0.906494,-0.066162,-52.030534,-2.59542,-24.885496,1
21,1.643,0.030273,-0.897705,-0.058594,-42.877863,-12.381679,-22.053435,1
21,1.654,0.027832,-0.904541,-0.075928,-35.381679,-18.725191,-18.984733,1
21,1.671,0.007568,-0.916748,-0.13916,-27.381679,-24.603053,-15.572519,1
21,1.682,-0.003174,-0.89502,-0.151123,-22.40458,-28.29771,-14.40458,1
21,1.692,-0.013916,-0.874268,-0.106689,-16.977099,-29.335878,-14.053435,1
21,1.709,0.008301,-0.873535,-0.068115,-8.458015,-26.206107,-13.770992,1
21,1.721,0.011963,-0.889893,-0.110596,-4.175573,-21.381679,-13.068702,1
21,1.731,-0.013428,-0.895996,-0.137939,-0.122137,-18.083969,-11.603053,1
21,1.742,-0.030518,-0.898438,-0.13916,4.175573,-17.992366,-10.641221,1
21,1.76,-0.020264,-0.87085,-0.066162,14.0,-18.221374,-8.48855,1
21,1.77,-0.001709,-0.87207,-0.075439,20.068702,-15.068702,-7.282443,1
21,1.781,0.008057,-0.885254,-0.08667,26.519084,-10.618321,-5.854962,1
21,1.799,0.003662,-0.895752,-0.107422,34.465649,-11.030534,-3.847328,1
21,1.809,-0.020508,-0.881836,-0.101074,39.671756,-14.160305,-3.480916,1
21,1.82,-0.031982,-0.865234,-0.093018,43.625954,-16.717557,-3.473282,1
21,1.831,-0.054932,-0.948242,-0.28418,39.694656,-12.381679,-3.89313,1
21,1.848,0.302979,-1.084961,-0.932861,1.992366,51.076336,-17.053435,1
21,1.859,-0.221436,-1.11377,-0.972168,-5.480916,58.641221,-26.465649,1
21,1.876,-0.21875,-1.107178,-0.262451,25.847328,48.923664,-26.671756,1
21,1.887,-0.139404,-1.193848,0.12207,39.839695,80.236641,-16.122137,1
21,1.898,0.068115,-1.249756,0.02124,55.908397,57.045802,-1.610687,1
21,1.915,0.367432,-1.193848,-0.317383,68.435115,22.183206,3.59542,1
21,1.926,0.436523,-1.115967,-0.274658,72.198473,1.473282,1.221374,1
21,1.937,0.568848,-1.033203,-0.178467,72.916031,-30.885496,-2.633588,1
21,1.953,0.473633,-0.934082,-0.021973,72.282443,-75.122137,-4.816794,1
21,1.964,0.303955,-0.951904,-0.008789,72.763359,-90.564885,-1.641221,1
21,1.976,0.146484,-1.016846,-0.018311,70.10687,-93.984733,1.885496,1
21,1.992,0.037598,-1.0979,-0.044922,66.78626,-67.458015,1.877863,1
21,2.003,0.001709,-1.120117,-0.00293,63.068702,-35.51145,-1.045802,1
21,2.015,0.005859,0.144531,0.0625,11.503817,86.503817,-31.267176,1
21,2.026,0.0,0.125,0.015869,0.305344,1.007634,-43.969466,1
22,0.41,0.099854,-1.185547,-0.099121,99.664122,16.068702,47.793893,1
22,0.416,0.117188,-1.227051,-0.109375,100.206107,11.40458,48.519084,1
22,0.427,0.081543,-1.275879,-0.051025,99.557252,-2.832061,48.946565,1
22,0.432,0.186035,-1.287109,0.029785,99.923664,-11.206107,47.503817,1
22,0.438,0.209229,-1.346924,0.007812,94.526718,-17.267176,44.839695,1
22,0.444,0.211426,-1.349365,-0.020264,88.801527,-21.152672,43.328244,1
22,0.449,0.160889,-1.371094,-0.040039,85.167939,-24.648855,42.122137,1
22,0.455,0.135986,-1.369141,-0.026855,81.366412,-23.992366,41.152672,1
22,0.46,0.121826,-1.370361,-0.066162,75.931298,-24.564885,40.122137,1
22,0.471,0.138184,-1.35498,-0.229248,61.099237,-20.114504,35.450382,1
22,0.477,0.08374,-1.303955,-0.273193,54.557252,-23.549618,32.832061,1
22,0.483,0.097656,-1.241699,-0.320557,46.679389,-27.877863,29.496183,1
22,0.488,0.10376,-1.189209,-0.355713,36.641221,-30.793893,26.022901,1
22,0.494,0.059326,-1.121338,-0.436768,25.343511,-33.992366,23.091603,1
22,0.499,0.046631,-1.075928,-0.489746,14.946565,-34.290076,20.450382,1
22,0.505,0.039551,-1.029785,-0.501709,4.923664,-33.442748,18.091603,1
22,0.51,0.048584,-1.00415,-0.489502,-6.129771,-33.824427,15.29771,1
22,0.516,0.049072,-0.973877,-0.476318,-16.78626,-34.198473,12.053435,1
22,0.527,0.060547,-0.946289,-0.427002,-36.946565,-32.519084,5.793893,1
22,0.533,0.058105,-0.948486,-0.387695,-46.763359,-29.167939,3.030534,1
22,0.538,0.054443,-0.964355,-0.358643,-56.923664,-25.687023,0.618321,1
22,0.544,0.058838,-0.994141,-0.341064,-66.793893,-21.938931,-1.251908,1
22,0.549,0.046143,-1.008301,-0.319336,-75.687023,-18.320611,-2.465649,1
22,0.555,0.035645,-1.035889,-0.297363,-83.717557,-15.847328,-3.557252,1
22,0.56,0.03125,-1.056641,-0.280518,-91.29771,-14.061069,-4.358779,1
22,0.565,0.042969,-1.074219,-0.260986,-98.541985,-13.358779,-4.862595,1
22,0.577,0.070557,-1.092041,-0.208496,-109.793893,-14.854962,-6.152672,1
22,0.583,0.092773,-1.07959,-0.172852,-113.854962,-17.389313,-7.51145,1
22,0.588,0.111328,-1.088867,-0.13501,-117.320611,-21.603053,-8.641221,1
22,0.594,0.11499,-1.09082,-0.114502,-119.816794,-26.068702,-9.503817,1
22,0.599,0.117432,-1.092285,-0.102051,-121.458015,-30.977099,-10.618321,1
22,0.611,0.119141,-1.094482,-0.068359,-124.137405,-40.725191,-12.396947,1
22,0.616,0.118652,-1.101807,-0.053955,-124.778626,-45.885496,-13.198473,1
22,0.622,0.105957,-1.101562,-0.061768,-125.030534,-50.267176,-13.732824,1
22,0.627,0.105469,-1.107666,-0.054932,-125.068702,-54.381679,-14.061069,1
22,0.633,0.085693,-1.099854,-0.026611,-124.114504,-57.671756,-14.564885,1
22,0.643,0.080566,-1.098633,-0.00415,-122.618321,-63.450382,-15.145038,1
22,0.649,0.076416,-1.103027,-0.004883,-121.618321,-66.358779,-15.748092,1
22,0.655,0.07666,-1.106934,-0.008545,-120.717557,-68.694656,-15.992366,1
22,0.661,0.066406,-1.105713,-0.001221,-120.038168,-70.099237,-16.122137,1
22,0.666,0.043701,-1.117432,-0.028076,-119.541985,-71.19084,-15.923664,1
22,0.671,0.051514,-1.114014,-0.021729,-118.977099,-71.167939,-15.694656,1
22,0.682,0.02832,-1.11499,-0.014648,-117.160305,-68.549618,-14.717557,1
22,0.688,0.02832,-1.109619,-0.010498,-116.152672,-65.862595,-14.022901,1
22,0.693,0.0271,-1.108154,-0.021484,-115.29771,-63.007634,-13.564885,1
22,0.7,0.02002,-1.112793,-0.003662,-113.603053,-60.160305,-13.061069,1
22,0.705,0.027588,-1.101074,-0.003418,-112.351145,-57.687023,-12.541985,1
22,0.71,0.036865,-1.090332,0.016357,-111.0,-54.587786,-12.061069,1
22,0.721,0.028564,-1.05835,-0.003174,-109.290076,-47.267176,-11.679389,1
22,0.727,0.02002,-1.051514,-0.016357,-108.541985,-44.320611,-11.267176,1
22,0.732,0.013428,-1.045654,-0.012695,-108.0,-41.435115,-10.977099,1
22,0.739,0.011719,-1.03125,-0.0271,-106.748092,-37.671756,-10.70229,1
22,0.744,0.013428,-1.032959,-0.028564,-106.045802,-33.847328,-10.70229,1
22,0.749,0.016602,-1.030518,-0.029785,-105.366412,-29.870229,-10.854962,1
22,0.755,0.008789,-1.018066,-0.038086,-104.29771,-25.70229,-11.183206,1
22,0.766,0.011719,-1.005615,-0.021729,-101.80916,-17.908397,-12.824427,1
22,0.771,0.033203,-0.993408,-0.011475,-99.885496,-13.839695,-13.78626,1
22,0.777,0.045654,-0.988525,-0.019531,-97.992366,-9.885496,-14.732824,1
22,0.783,0.04541,-0.988281,-0.022217,-96.503817,-5.938931,-15.664122,1
22,0.788,0.067871,-0.970947,-0.021973,-94.473282,-3.343511,-16.664122,1
22,0.794,0.054199,-0.981201,-0.035645,-92.59542,-1.396947,-17.725191,1
22,0.799,0.077148,-0.963135,-0.032715,-90.78626,-0.076336,-18.374046,1
22,0.81,0.06665,-0.94458,-0.01123,-85.748092,-2.396947,-20.21374,1
22,0.816,0.056641,-0.937012,-0.009766,-82.969466,-4.541985,-20.938931,1
23,0.303,0.313965,-1.261475,-0.032471,124.221374,-3.076336,34.175573,1
23,0.308,0.399414,-1.310303,-0.188965,117.984733,3.137405,34.328244,1
23,0.314,0.247803,-1.407959,-0.143555,117.671756,5.053435,37.51145,1
23,0.325,0.353516,-1.634521,-0.082031,106.618321,13.732824,37.618321,1
23,0.33,0.253906,-1.693604,-0.054932,107.725191,13.916031,39.572519,1
23,0.337,0.331787,-1.707031,-0.038818,109.648855,9.625954,43.541985,1
23,0.342,0.301025,-1.745361,0.091553,110.236641,10.732824,48.503817,1
23,0.347,0.464111,-1.661865,0.006836,109.40458,14.549618,50.961832,1
23,0.353,0.356445,-1.631592,-0.066162,107.396947,20.656489,55.10687,1
23,0.358,0.368652,-1.578125,-0.123535,105.10687,20.412214,58.633588,1
23,0.364,0.543457,-1.496826,-0.193115,99.030534,20.251908,58.427481,1
23,0.374,0.520508,-1.341064,-0.291016,90.633588,4.51145,52.282443,1
23,0.381,0.526855,-1.262939,-0.281006,84.122137,-11.564885,48.122137,1
23,0.386,0.449951,-1.205566,-0.338379,76.526718,-23.938931,44.450382,1
23,0.392,0.436279,-1.132568,-0.388184,68.267176,-36.763359,41.778626,1
23,0.397,0.437256,-1.084473,-0.445557,58.244275,-43.10687,39.946565,1
23,0.403,0.467041,-1.040771,-0.456787,51.625954,-59.694656,37.045802,1
23,0.408,0.422607,-1.003418,-0.563965,38.198473,-51.229008,34.648855,1
23,0.42,0.440674,-0.928955,-0.574219,19.076336,-81.671756,24.832061,1
23,0.425,0.39624,-0.861572,-0.593018,10.450382,-90.381679,19.839695,1
23,0.431,0.374268,-0.844238,-0.568848,0.687023,-98.412214,14.778626,1
23,0.436,0.380859,-0.810303,-0.636475,-11.175573,-107.580153,10.343511,1
23,0.442,0.323975,-0.813721,-0.575684,-22.78626,-111.137405,5.89313,1
23,0.447,0.328125,-0.813721,-0.606445,-33.29771,-112.374046,2.21374,1
23,0.452,0.310791,-0.837402,-0.587891,-44.572519,-115.099237,-0.778626,1
23,0.464,0.278564,-0.908203,-0.5625,-64.946565,-116.984733,-5.038168,1
23,0.47,0.258789,-0.947754,-0.554443,-74.183206,-116.793893,-5.908397,1
23,0.475,0.233643,-0.98291,-0.517334,-82.610687,-115.496183,-5.885496,1
23,0.481,0.222412,-0.996338,-0.492188,-90.450382,-113.648855,-5.656489,1
23,0.486,0.209961,-1.018311,-0.459961,-98.755725,-110.984733,-5.175573,1
23,0.497,0.208252,-1.054932,-0.393555,-115.099237,-100.129771,-4.496183,1
23,0.502,0.19458,-1.061523,-0.385498,-122.80916,-96.29771,-4.099237,1
23,0.509,0.2229,-1.083496,-0.342041,-130.122137,-90.900763,-4.236641,1
23,0.514,0.195312,-1.087891,-0.338623,-137.366412,-85.343511,-4.099237,1
23,0.52,0.211914,-1.119141,-0.314697,-143.778626,-79.251908,-4.343511,1
23,0.53,0.190186,-1.148438,-0.268555,-155.152672,-65.641221,-5.122137,1
23,0.536,0.159912,-1.166992,-0.260498,-161.068702,-58.656489,-5.412214,1
23,0.541,0.162842,-1.165527,-0.232666,-164.832061,-51.419847,-5.801527,1
23,0.548,0.179443,-1.161377,-0.187256,-167.900763,-44.229008,-6.687023,1
23,0.553,0.182373,-1.184326,-0.215088,-171.664122,-37.312977,-6.969466,1
23,0.564,0.234619,-1.163574,-0.152588,-176.480916,-27.114504,-9.40458,1
23,0.569,0.246582,-1.125488,-0.148438,-177.946565,-25.916031,-10.938931,1
23,0.575,0.245605,-1.122803,-0.107422,-177.984733,-25.854962,-12.122137,1
23,0.58,0.255615,-1.111572,-0.100098,-179.335878,-28.374046,-13.335878,1
23,0.586,0.280762,-1.119629,-0.129639,-180.51145,-28.78626,-14.358779,1
23,0.597,0.273193,-1.124756,-0.148682,-181.320611,-30.847328,-16.778626,1
23,0.603,0.30957,-1.109863,-0.1521,-180.992366,-33.358779,-18.473282,1
23,0.608,0.30127,-1.133789,-0.114746,-181.351145,-36.656489,-20.076336,1
23,0.614,0.311768,-1.098877,-0.122314,-181.396947,-42.694656,-21.580153,1
23,0.619,0.329102,-1.098145,-0.185303,-183.083969,-47.916031,-22.839695,1
23,0.63,0.320312,-1.092529,-0.036621,-180.351145,-57.19084,-26.145038,1
23,0.637,0.299561,-1.065674,-0.035889,-180.480916,-65.358779,-27.496183,1
23,0.642,0.299805,-1.057861,-0.041016,-179.618321,-67.946565,-28.328244,1
23,0.647,0.252441,-1.062012,-0.021973,-177.435115,-68.610687,-29.022901,1
23,0.653,0.224609,-1.069092,-0.014404,-175.068702,-70.175573,-29.152672,1
23,0.664,0.183594,-1.07959,0.016846,-170.648855,-66.305344,-26.694656,1
23,0.669,0.153076,-1.091064,-0.02002,-168.427481,-61.0,-25.412214,1
23,0.674,0.142822,-1.09668,-0.026855,-165.206107,-56.030534,-24.114504,1
23,0.681,0.169434,-1.099365,-0.036865,-162.19084,-54.053435,-22.732824,1
23,0.686,0.185791,-1.101074,-0.027832,-160.076336,-54.076336,-21.633588,1
23,0.697,0.194092,-1.079102,-0.058594,-154.358779,-55.442748,-19.076336,1
23,0.703,0.183594,-1.066406,-0.039551,-150.816794,-55.21374,-17.748092,1
23,0.708,0.184082,-1.053467,-0.021973,-147.465649,-54.755725,-16.198473,1
23,0.713,0.193604,-1.045166,0.005127,-144.061069,-54.061069,-15.48855,1
24,0.681,0.157471,-1.186279,-0.09668,-17.40458,20.763359,-7.267176,1
24,0.697,0.125977,-1.5,-0.112305,-14.931298,35.458015,-0.572519,1
24,0.708,0.196289,-1.342773,-0.045898,-4.709924,27.442748,-0.89313,1
24,0.719,0.185791,-0.983154,-0.003662,2.916031,13.664122,-0.938931,1
24,0.73,0.259766,-0.831543,0.000977,2.259542,8.267176,-3.717557,1
24,0.741,0.243164,-0.920166,0.027832,2.641221,7.671756,-3.694656,1
24,0.752,0.304688,-0.982422,0.056641,3.183206,3.633588,-1.938931,1
24,0.763,0.282959,-1.004395,0.078857,5.389313,9.198473,1.89313,1
24,0.775,0.259277,-0.977295,0.078857,5.78626,18.854962,4.183206,1
24,0.786,0.292969,-0.970703,0.054932,7.251908,22.442748,4.473282,1
24,0.797,0.280273,-0.983154,0.048096,9.030534,23.526718,4.610687,1
24,0.807,0.21582,-0.991699,0.015381,10.770992,26.396947,8.045802,1
24,0.819,0.275879,-0.987061,0.013428,15.854962,24.274809,11.496183,1
24,0.83,0.324951,-0.959229,0.006592,24.053435,18.038168,14.603053,1
24,0.841,0.362305,-0.952148,-0.037842,31.526718,11.48855,19.687023,1
24,0.853,0.338379,-0.950439,-0.014893,39.854962,4.236641,25.022901,1
24,0.864,0.339111,-0.918457,-0.04248,50.045802,1.114504,30.648855,1
24,0.875,0.317627,-0.924072,-0.087158,62.328244,5.480916,37.725191,1
24,0.885,0.249756,-1.015137,-0.103516,74.450382,12.480916,45.732824,1
24,0.897,0.26709,-1.034424,-0.106445,88.091603,19.396947,55.900763,1
24,0.908,0.333496,-1.10376,-0.115723,99.793893,18.160305,62.320611,1
24,0.919,0.355957,-1.224854,-0.072998,107.48855,11.435115,67.885496,1
24,0.935,0.342041,-1.653809,-0.124023,110.229008,26.664122,78.557252,1
24,0.947,0.555664,-1.852783,-0.127686,109.480916,37.778626,84.458015,1
24,0.958,0.520752,-1.938232,-0.041504,116.320611,50.526718,87.160305,1
24,0.969,0.604736,-1.91748,0.011475,126.122137,56.21374,96.473282,1
24,0.986,0.862549,-1.568115,0.113525,129.40458,19.251908,107.59542,1
24,0.997,1.193115,-1.411621,0.006104,129.496183,-35.832061,101.48855,1
24,1.013,0.916992,-1.351807,-0.302979,122.496183,-138.450382,67.236641,1
24,1.025,0.494141,-1.260498,-0.207275,111.664122,-166.450382,74.381679,1
24,1.041,0.579834,-0.987061,-0.556885,74.152672,-180.206107,62.549618,1
24,1.052,0.690918,-0.846436,-0.762939,48.030534,-203.748092,43.694656,1
24,1.069,0.574707,-0.695557,-0.760986,10.755725,-227.709924,22.442748,1
24,1.08,0.487549,-0.718506,-0.706299,-17.022901,-227.908397,14.664122,1
24,1.097,0.186768,-0.83667,-0.569092,-58.687023,-220.244275,8.656489,1
24,1.108,0.228516,-0.911621,-0.516113,-89.419847,-189.725191,10.068702,1
24,1.125,0.318359,-1.02124,-0.443848,-134.656489,-147.938931,-2.129771,1
24,1.136,0.158936,-1.026367,-0.322754,-159.755725,-118.89313,-6.641221,1
24,1.153,0.097412,-1.07373,-0.208008,-197.10687,-61.587786,-7.80916,1
24,1.164,0.143066,-1.094971,-0.150879,-215.946565,-31.076336,-10.473282,1
24,1.174,0.226318,-1.135498,-0.124756,-230.251908,-10.709924,-15.694656,1
24,1.191,0.290527,-1.135742,-0.072266,-247.503817,-6.358779,-25.770992,1
24,1.203,0.359131,-1.133545,-0.015625,-250.137405,-13.618321,-32.496183,1
24,1.219,0.406738,-1.148682,0.012695,-250.137405,-28.59542,-40.305344,1
24,1.23,0.397705,-1.133545,0.096924,-250.137405,-39.755725,-44.763359,1
24,1.242,0.402588,-1.104492,0.141357,-249.458015,-56.122137,-49.427481,1
24,1.258,0.311035,-1.091797,0.232178,-245.320611,-76.175573,-56.625954,1
24,1.269,0.271729,-1.128418,0.227295,-248.687023,-79.122137,-61.167939,1
24,1.286,0.221436,-1.245605,0.228516,-250.137405,-68.076336,-66.885496,1
24,1.297,0.214844,-1.340576,0.249756,-249.854962,-58.045802,-68.206107,1
24,1.313,0.006592,-1.362793,0.270752,-234.916031,-53.045802,-60.763359,1
24,1.325,-0.04126,-1.319092,0.396729,-221.320611,-28.328244,-49.076336,1
24,1.341,0.176514,-1.379639,0.339355,-209.145038,-15.916031,-34.381679,1
24,1.352,0.401611,-1.283447,0.47583,-194.412214,-39.114504,-23.427481,1
24,1.369,0.241455,-0.925293,0.740234,-140.038168,-43.916031,-16.244275,1
24,1.38,0.197754,-0.67749,0.883789,-105.534351,-44.770992,-11.366412,1
24,1.397,-0.014893,-0.422363,1.072998,-35.656489,-12.435115,-11.335878,1
24,1.408,0.098389,-0.491943,1.022949,5.045802,23.59542,-3.618321,1
24,1.425,0.37207,-0.772705,0.787598,54.992366,81.274809,8.900763,1
24,1.436,0.70166,-1.020264,-0.008301,74.290076,131.458015,13.541985,1
24,1.453,-0.005615,-1.70166,-1.313477,63.381679,250.129771,28.129771,1
24,1.464,0.847412,-2.0,-0.420898,103.061069,110.862595,16.572519,1
24,1.48,0.334229,-1.898682,-0.256836,172.740458,-113.274809,33.442748,1
24,1.492,0.139648,-1.57959,-0.185059,188.145038,-126.938931,39.992366,1
25,0.382,0.25,-1.16626,-0.12085,99.78626,-9.053435,20.312977,1
25,0.388,0.253906,-1.243896,-0.123779,100.412214,-16.885496,19.167939,1
25,0.393,0.185547,-1.317383,-0.115479,100.343511,-24.656489,17.984733,1
25,0.399,0.137695,-1.376953,-0.078857,104.282443,-32.396947,17.89313,1
25,0.404,0.130859,-1.469727,-0.012939,105.40458,-35.641221,17.274809,1
25,0.409,0.133789,-1.522461,0.03418,107.122137,-39.122137,17.465649,1
25,0.416,0.05249,-1.536377,0.060791,108.694656,-39.89313,18.022901,1
25,0.427,0.037354,-1.513428,0.084229,111.053435,-27.244275,19.045802,1
25,0.432,0.0625,-1.461426,0.11499,109.526718,-17.923664,19.007634,1
25,0.438,0.112061,-1.393311,0.138184,107.625954,-11.709924,18.381679,1
25,0.443,0.128418,-1.321533,0.174316,106.770992,-7.870229,17.335878,1
25,0.448,0.168701,-1.25708,0.173584,105.412214,-7.312977,15.290076,1
25,0.455,0.195557,-1.211182,0.148438,104.183206,-8.923664,12.839695,1
25,0.46,0.206787,-1.195312,0.137939,100.396947,-10.923664,10.358779,1
25,0.471,0.206787,-1.182129,-0.074951,87.465649,-10.396947,5.282443,1
25,0.477,0.182373,-1.170166,-0.183838,79.633588,-9.641221,2.732824,1
25,0.482,0.188232,-1.135742,-0.266113,71.557252,-13.167939,-0.236641,1
25,0.487,0.190674,-1.100098,-0.311279,62.259542,-19.21374,-3.10687,1
25,0.493,0.202393,-1.054443,-0.36792,53.541985,-28.129771,-5.748092,1
25,0.499,0.225342,-1.020508,-0.406982,44.519084,-40.145038,-7.78626,1
25,0.505,0.246582,-0.974609,-0.46582,33.038168,-52.068702,-9.251908,1
25,0.515,0.217041,-0.931641,-0.614258,8.465649,-70.48855,-9.793893,1
25,0.521,0.191406,-0.933594,-0.638184,-4.625954,-79.946565,-9.236641,1
25,0.526,0.135986,-0.922119,-0.62915,-18.335878,-88.854962,-8.458015,1
25,0.532,0.105957,-0.923828,-0.592285,-31.70229,-93.21374,-7.610687,1
25,0.537,0.053223,-0.924561,-0.568359,-44.045802,-93.030534,-6.267176,1
25,0.544,0.003662,-0.938965,-0.544189,-56.755725,-90.083969,-5.145038,1
25,0.554,-0.06665,-0.991699,-0.504883,-83.007634,-73.343511,-3.51145,1
25,0.56,-0.089355,-1.02124,-0.472412,-95.938931,-63.503817,-3.396947,1
25,0.565,-0.129883,-1.032715,-0.422607,-106.725191,-52.259542,-3.854962,1
25,0.571,-0.158936,-1.032715,-0.403076,-117.961832,-39.954198,-4.29771,1
25,0.576,-0.1875,-1.047607,-0.342041,-128.305344,-25.114504,-4.877863,1
25,0.588,-0.175537,-1.057129,-0.280518,-147.519084,7.412214,-6.0,1
25,0.593,-0.140625,-1.070068,-0.269531,-155.587786,22.076336,-6.664122,1
25,0.599,-0.079834,-1.097412,-0.271973,-163.061069,32.648855,-8.022901,1
25,0.604,-0.013672,-1.114746,-0.246826,-169.801527,39.770992,-9.366412,1
25,0.61,0.034424,-1.126465,-0.222656,-175.70229,43.114504,-11.099237,1
25,0.615,0.076172,-1.142334,-0.204102,-181.099237,43.80916,-12.725191,1
25,0.627,0.155762,-1.182617,-0.168701,-189.694656,39.045802,-15.557252,1
25,0.632,0.192139,-1.202637,-0.146729,-192.740458,33.610687,-16.870229,1
25,0.638,0.203613,-1.21875,-0.117432,-195.114504,27.061069,-18.099237,1
25,0.643,0.218262,-1.234619,-0.101807,-196.740458,19.946565,-19.167939,1
25,0.649,0.206055,-1.254395,-0.076904,-198.557252,13.358779,-20.007634,1
25,0.654,0.190674,-1.258545,-0.05127,-199.526718,6.961832,-20.48855,1
25,0.665,0.166016,-1.280273,0.031982,-199.59542,-3.816794,-21.114504,1
25,0.671,0.165527,-1.283203,0.090088,-198.564885,-8.389313,-21.221374,1
25,0.677,0.134766,-1.266113,0.144043,-197.839695,-13.305344,-21.229008,1
25,0.682,0.111816,-1.25708,0.171875,-195.358779,-17.969466,-20.725191,1
25,0.688,0.081299,-1.222168,0.216553,-193.396947,-20.473282,-20.473282,1
25,0.693,0.070557,-1.194092,0.235107,-190.59542,-21.496183,-20.206107,1
25,0.704,0.04126,-1.143066,0.257568,-184.022901,-17.603053,-19.259542,1
25,0.71,0.016357,-1.138916,0.253418,-182.045802,-12.687023,-18.557252,1
25,0.716,0.001465,-1.143311,0.250488,-179.793893,-6.099237,-18.091603,1
25,0.721,-0.015137,-1.146729,0.22876,-178.244275,1.442748,-17.335878,1
25,0.727,-0.000244,-1.15918,0.204102,-176.977099,9.78626,-16.282443,1
25,0.732,-0.000732,-1.162354,0.200928,-175.251908,17.061069,-15.083969,1
25,0.743,0.024414,-1.154541,0.189453,-171.305344,23.618321,-14.122137,1
25,0.748,0.043213,-1.13916,0.225342,-167.78626,24.21374,-13.633588,1
25,0.755,0.049072,-1.109619,0.246582,-163.770992,22.954198,-14.007634,1
25,0.76,0.079102,-1.05835,0.283691,-159.152672,19.259542,-14.229008,1
25,0.766,0.074707,-1.025146,0.298828,-153.89313,16.450382,-15.259542,1
25,0.771,0.086914,-0.98291,0.33252,-146.969466,14.572519,-16.442748,1
25,0.777,0.087402,-0.94751,0.373779,-138.877863,14.152672,-17.557252,1
25,0.787,0.093506,-0.86792,0.463135,-121.076336,15.534351,-19.519084,1
26,0.025,0.305908,-1.120605,-0.224854,108.381679,-5.534351,15.183206,1
26,0.031,0.314697,-1.189453,-0.191162,111.450382,-7.458015,12.129771,1
26,0.036,0.325684,-1.296387,-0.201172,114.015267,-13.839695,9.587786,1
26,0.041,0.268555,-1.38501,-0.184814,116.114504,-17.053435,7.70229,1
26,0.047,0.239014,-1.479492,-0.147461,117.473282,-16.839695,6.48855,1
26,0.052,0.273926,-1.594238,-0.14209,120.061069,-12.114504,5.839695,1
26,0.063,0.214111,-1.701416,-0.073975,122.465649,-6.015267,5.961832,1
26,0.07,0.25708,-1.674316,-0.057861,124.51145,0.694656,5.70229,1
26,0.075,0.284424,-1.625488,-0.047852,124.29771,5.458015,4.900763,1
26,0.08,0.314209,-1.555908,-0.056641,122.557252,7.923664,3.717557,1
26,0.086,0.279053,-1.465332,-0.111084,119.305344,9.48855,1.40458,1
26,0.091,0.330078,-1.425293,-0.227783,112.748092,12.19084,-2.648855,1
26,0.097,0.372559,-1.39624,-0.38501,101.221374,13.038168,-8.946565,1
26,0.102,0.375,-1.346924,-0.488281,91.587786,7.458015,-15.916031,1
26,0.108,0.355469,-1.270996,-0.585693,79.847328,-0.435115,-20.946565,1
26,0.114,0.352783,-1.197998,-0.644775,67.870229,-9.053435,-24.633588,1
26,0.125,0.356934,-1.08374,-0.888428,37.656489,-26.877863,-29.229008,1
