series,time,AccX,AccY,AccZ,GyroX,GyroY,GyroZ
0,1.091,0.060547,0.323975,1.229248,-8.312977,62.854962,-39.900763
0,1.097,0.219238,0.451172,1.152832,-4.129771,55.389313,-32.954198
0,1.102,0.33252,0.541992,1.220947,0.305344,52.160305,-25.80916
0,1.108,0.467285,0.637695,1.19873,2.015267,45.549618,-24.29771
0,1.113,0.540039,0.69873,1.194092,9.717557,38.992366,-18.083969
0,1.125,0.647461,0.477783,1.147705,5.450382,6.038168,-19.709924
0,1.13,0.819824,0.391602,1.044434,4.48855,-5.618321,-20.587786
0,1.136,0.848389,0.363037,1.000488,8.152672,-16.290076,-24.992366
0,1.141,0.888184,0.39624,0.977783,11.854962,-23.198473,-28.740458
0,1.147,0.911133,0.41748,0.954346,16.236641,-28.10687,-31.267176
0,1.152,0.918945,0.430908,0.99292,19.572519,-39.633588,-32.061069
0,1.163,0.882812,0.405273,1.01001,31.007634,-61.870229,-30.442748
0,1.169,0.854736,0.392822,1.040771,38.572519,-75.854962,-27.931298
0,1.175,0.784424,0.364258,0.997803,46.076336,-87.70229,-26.160305
0,1.18,0.744873,0.360596,1.008545,51.992366,-96.587786,-24.061069
0,1.191,0.629639,0.345703,0.984619,63.664122,-114.870229,-16.969466
0,1.197,0.55835,0.335205,0.973633,64.931298,-121.625954,-13.832061
0,1.202,0.498291,0.339355,1.047607,69.412214,-125.374046,-8.022901
0,1.207,0.40918,0.329346,1.016602,72.274809,-128.969466,-6.083969
0,1.219,0.274414,0.373779,0.998535,75.938931,-132.274809,1.778626
0,1.225,0.205322,0.37207,1.03833,78.969466,-131.358779,5.801527
0,1.23,0.151123,0.33252,1.009521,79.946565,-139.389313,11.396947
0,1.236,0.120605,0.295898,0.923096,76.274809,-143.648855,13.389313
0,1.241,0.053467,0.317139,0.932617,79.381679,-147.496183,17.763359
0,1.246,0.028076,0.276367,0.907471,79.931298,-153.793893,20.282443
0,1.258,-0.050781,0.286865,0.844482,82.778626,-143.526718,25.435115
0,1.264,-0.069336,0.279785,0.848633,88.641221,-140.633588,29.541985
0,1.269,-0.110596,0.278076,0.891113,87.793893,-136.473282,32.793893
0,1.275,-0.155762,0.335449,1.000977,87.496183,-138.557252,33.900763
0,1.28,-0.235596,0.254395,1.118896,95.534351,-140.938931,41.816794
0,1.291,-0.342041,0.317627,1.119629,90.167939,-141.801527,49.679389
0,1.297,-0.599854,0.389893,1.319336,87.290076,-198.541985,60.931298
0,1.303,-0.327637,0.352539,1.353271,93.381679,-152.618321,63.748092
0,1.308,-0.478516,0.43457,1.290527,88.763359,-144.70229,72.21374
0,1.313,-0.486328,0.446045,1.331055,83.175573,-125.748092,78.885496
0,1.324,-0.568115,0.478516,1.370361,71.816794,-128.10687,97.580153
0,1.33,-0.527344,0.450195,1.163086,70.053435,-128.793893,106.290076
0,1.335,-0.622803,0.352051,1.145264,61.984733,-130.053435,111.572519
0,1.342,-0.484619,0.361816,1.113281,54.770992,-121.847328,114.732824
0,1.347,-0.44873,0.278809,0.942627,51.267176,-120.312977,115.137405
0,1.358,-0.39209,0.17627,0.864746,41.916031,-102.870229,106.221374
0,1.363,-0.442627,0.12207,0.697266,40.0,-113.21374,99.290076
0,1.369,-0.432617,0.138184,0.842041,36.290076,-114.816794,92.396947
0,1.374,-0.369873,0.119629,0.762451,36.587786,-105.396947,83.679389
0,1.386,-0.324463,0.126221,0.904297,35.381679,-81.59542,62.954198
0,1.391,-0.314941,0.122803,0.70874,44.053435,-85.435115,51.396947
0,1.397,-0.460938,0.21167,0.792236,45.671756,-91.427481,41.007634
0,1.402,-0.39917,0.092041,0.915527,49.870229,-81.847328,36.320611
0,1.408,-0.449219,0.061035,0.836182,50.290076,-79.541985,23.038168
0,1.419,-0.444336,0.05835,0.816162,60.335878,-74.755725,7.175573
0,1.425,-0.40332,0.006836,0.927246,61.70229,-73.519084,0.549618
0,1.43,-0.37915,-0.033691,0.810791,63.007634,-73.503817,-4.854962
0,1.436,-0.383545,-0.052734,0.995117,61.51145,-67.473282,-10.122137
0,1.441,-0.417969,-0.043701,0.888916,60.557252,-67.061069,-15.564885
0,1.447,-0.373535,-0.021484,0.800781,58.801527,-64.328244,-18.21374
0,1.452,-0.415527,-0.010498,0.806641,56.21374,-60.755725,-18.19084
0,1.463,-0.480957,-0.020752,0.755371,47.648855,-53.480916,-15.709924
0,1.469,-0.526855,-0.026611,0.731201,41.122137,-47.984733,-13.183206
0,1.475,-0.592285,-0.034668,0.703613,33.854962,-41.70229,-9.335878
0,1.48,-0.630859,-0.032227,0.625488,25.641221,-33.732824,-5.916031
0,1.486,-0.682617,-0.01416,0.579834,18.381679,-23.610687,-1.0
0,1.491,-0.726807,-0.038086,0.55957,8.977099,-14.259542,2.122137
0,1.502,-0.812744,-0.050049,0.513184,-10.671756,6.396947,9.389313
0,1.508,-0.913574,-0.077637,0.646729,-24.641221,15.343511,14.022901
1,0.395,0.241211,0.226074,1.232666,-48.167939,30.694656,-28.526718
1,0.401,0.403809,0.328369,1.236084,-36.89313,23.496183,-25.114504
1,0.406,0.408447,0.371826,1.212646,-25.923664,19.312977,-19.801527
1,0.417,0.431885,0.506592,1.165283,-7.732824,3.908397,-9.679389
1,0.422,0.530273,0.483154,1.113525,-1.053435,-5.175573,-5.877863
1,0.429,0.583008,0.435547,1.034668,7.572519,-13.335878,-1.412214
1,0.434,0.566406,0.401367,1.08374,4.938931,-21.603053,-1.007634
1,0.44,0.636475,0.432861,0.986816,9.167939,-23.633588,2.099237
1,0.445,0.618164,0.396484,0.987549,22.122137,-30.305344,6.19084
1,0.451,0.628906,0.447998,1.03125,21.396947,-39.076336,5.206107
1,0.456,0.632324,0.451416,1.028076,16.259542,-42.793893,6.687023
1,0.461,0.631592,0.394775,0.929443,18.198473,-51.496183,7.778626
1,0.473,0.625,0.371094,0.913818,23.175573,-69.603053,9.198473
1,0.479,0.550293,0.335693,0.868164,27.931298,-76.229008,11.709924
1,0.484,0.519531,0.321289,0.972168,27.755725,-72.396947,12.412214
1,0.49,0.491943,0.265869,0.848389,39.977099,-82.412214,15.610687
1,0.495,0.366211,0.287354,0.980225,38.412214,-85.40458,16.89313
1,0.5,0.398193,0.316406,1.010498,35.801527,-84.748092,19.587786
1,0.511,0.256348,0.319824,0.974365,51.343511,-84.48855,28.709924
1,0.518,0.145508,0.299072,1.019043,48.70229,-92.877863,28.748092
1,0.523,0.089844,0.334473,0.992188,54.061069,-96.526718,31.503817
1,0.529,0.062012,0.284668,1.093262,59.0,-96.320611,35.267176
1,0.534,-0.038818,0.249512,1.082764,61.396947,-94.641221,37.984733
1,0.539,-0.146973,0.216553,1.221191,62.931298,-97.969466,39.374046
1,0.55,-0.231445,0.269043,1.102051,64.564885,-102.664122,41.633588
1,0.557,-0.278076,0.287354,1.066406,68.167939,-106.282443,45.732824
1,0.562,-0.220459,0.252686,1.112793,64.816794,-108.473282,50.068702
1,0.567,-0.268555,0.20166,1.078369,64.114504,-111.519084,50.778626
1,0.573,-0.248291,0.193848,1.104004,71.419847,-115.801527,57.541985
1,0.578,-0.289551,0.140137,1.001221,71.038168,-115.503817,56.564885
1,0.589,-0.281494,0.102539,0.830322,67.679389,-119.458015,58.557252
1,0.595,-0.30835,0.097168,0.816162,66.755725,-118.80916,60.526718
1,0.601,-0.260254,0.140625,0.802246,69.061069,-116.244275,63.21374
1,0.606,-0.355713,0.135986,0.9646,69.618321,-116.618321,65.137405
1,0.612,-0.316895,0.122314,0.752197,71.412214,-112.885496,66.374046
1,0.617,-0.409424,0.104248,0.86377,75.267176,-126.10687,70.114504
1,0.628,-0.408203,0.192627,1.024414,67.687023,-97.832061,74.503817
1,0.634,-0.462891,0.178955,0.9104,68.068702,-93.854962,77.656489
1,0.639,-0.567871,0.104004,0.962158,66.068702,-96.801527,79.801527
1,0.645,-0.660156,0.075195,1.074463,56.549618,-85.969466,79.59542
1,0.651,-0.597412,0.076172,1.054199,52.572519,-87.916031,80.610687
1,0.656,-0.662109,0.088867,1.014893,40.183206,-83.183206,79.763359
1,0.667,-0.529297,0.116943,0.961426,31.480916,-74.801527,83.977099
1,0.673,-0.483154,0.06543,0.778809,27.381679,-75.244275,81.580153
1,0.678,-0.499756,-0.00708,0.823242,21.167939,-71.328244,76.931298
1,0.683,-0.465088,-0.066895,0.710449,17.083969,-69.519084,69.816794
1,0.69,-0.421387,-0.115479,0.733643,13.183206,-64.587786,60.984733
1,0.695,-0.44043,-0.139893,0.694336,11.656489,-61.748092,51.641221
1,0.701,-0.467285,-0.148193,0.764893,8.862595,-57.442748,41.648855
1,0.712,-0.502441,-0.122314,0.731445,6.900763,-51.801527,23.366412
1,0.717,-0.434814,-0.086426,0.74707,9.564885,-44.21374,16.389313
1,0.722,-0.492432,-0.081543,0.785156,11.458015,-41.351145,9.78626
1,0.729,-0.472412,-0.078613,0.803955,13.160305,-37.381679,3.40458
1,0.734,-0.521484,-0.067871,0.885498,13.21374,-34.954198,-3.305344
1,0.74,-0.47583,-0.051025,0.780762,14.572519,-33.343511,-9.366412
1,0.745,-0.473633,-0.03418,0.778809,16.053435,-30.10687,-15.038168
1,0.751,-0.474854,-0.032227,0.755371,17.007634,-26.19084,-20.061069
1,0.756,-0.49707,-0.015381,0.744141,18.244275,-21.824427,-25.641221
1,0.761,-0.533691,0.009766,0.732178,18.465649,-16.51145,-30.534351
1,0.767,-0.533936,0.02124,0.724609,18.625954,-11.320611,-32.961832
1,0.773,-0.558105,0.038818,0.704102,18.328244,-6.381679,-33.633588
1,0.784,-0.610596,0.036621,0.687256,16.175573,5.29771,-32.007634
1,0.79,-0.688721,0.003418,0.655029,13.48855,14.328244,-31.70229
1,0.795,-0.736816,0.009766,0.606201,10.198473,23.503817,-31.78626
2,0.188,-0.313965,0.209961,1.161621,32.816794,-145.969466,40.839695
2,0.194,-0.348389,0.201904,1.130615,42.954198,-158.007634,43.725191
2,0.199,-0.301758,0.259766,1.095459,47.305344,-147.343511,44.21374
2,0.21,-0.32959,0.304688,1.073486,54.030534,-134.274809,50.908397
2,0.215,-0.342285,0.304443,1.013672,54.40458,-141.29771,54.343511
2,0.222,-0.344971,0.311768,1.008301,48.152672,-140.908397,57.519084
2,0.227,-0.365723,0.313721,0.982422,41.793893,-140.396947,60.954198
2,0.233,-0.361572,0.301025,0.927002,38.618321,-140.389313,63.977099
2,0.243,-0.338867,0.315674,0.869385,36.083969,-125.816794,69.236641
2,0.249,-0.343994,0.275391,0.813721,39.633588,-120.480916,71.847328
2,0.254,-0.334717,0.252686,0.804688,38.015267,-117.725191,72.969466
2,0.26,-0.344727,0.240234,0.772949,38.160305,-114.870229,73.290076
2,0.266,-0.270996,0.215088,0.570801,38.480916,-104.091603,72.839695
2,0.277,-0.871826,-0.160156,0.414795,140.679389,-35.343511,78.618321
2,0.282,-0.203369,0.119629,0.504883,86.221374,-70.732824,73.503817
2,0.288,-0.433594,0.217773,1.052979,1.435115,-112.427481,70.21374
2,0.293,-0.501953,0.28125,0.832275,-29.145038,-124.664122,65.671756
2,0.299,-0.375,0.155762,0.687256,-3.10687,-102.068702,65.679389
2,0.305,-0.40332,0.166016,0.842773,12.671756,-82.541985,66.167939
2,0.316,-0.377686,0.186035,0.729492,23.076336,-46.351145,63.549618
2,0.321,-0.408203,0.188965,0.616699,25.984733,-48.900763,62.603053
2,0.327,-0.411621,0.193359,0.667236,9.366412,-55.167939,61.564885
2,0.332,-0.431396,0.199463,0.644775,-4.854962,-59.374046,60.114504
2,0.338,-0.427979,0.188965,0.60376,-5.969466,-57.183206,58.618321
2,0.343,-0.435303,0.197021,0.606934,-2.465649,-48.923664,57.267176
2,0.35,-0.445557,0.185303,0.610596,2.206107,-36.251908,55.816794
2,0.355,-0.473145,0.205322,0.682373,3.114504,-23.305344,54.328244
2,0.36,-0.480957,0.199707,0.607666,5.824427,-16.503817,52.610687
2,0.366,-0.473877,0.213135,0.612305,-1.740458,-7.160305,50.732824
2,0.377,-0.497803,0.19873,0.603271,-6.152672,5.755725,47.351145
2,0.382,-0.490234,0.188477,0.577148,-5.519084,4.969466,45.320611
2,0.388,-0.477295,0.198975,0.612549,-11.717557,7.496183,43.358779
2,0.394,-0.480713,0.202881,0.5896,-14.267176,12.732824,41.832061
2,0.399,-0.500488,0.193359,0.603027,-14.183206,16.778626,39.290076
2,0.405,-0.501953,0.188721,0.621582,-15.282443,18.916031,36.916031
2,0.41,-0.506104,0.193848,0.61377,-17.557252,23.351145,34.755725
2,0.416,-0.515625,0.195801,0.588135,-18.167939,27.648855,32.267176
2,0.421,-0.545166,0.190918,0.592285,-18.763359,30.160305,29.366412
2,0.427,-0.562744,0.196289,0.588623,-20.580153,32.290076,26.374046
2,0.433,-0.589355,0.210938,0.593262,-21.717557,36.099237,23.236641
2,0.438,-0.610596,0.207031,0.580566,-22.824427,39.938931,19.923664
2,0.444,-0.63916,0.21582,0.582764,-23.305344,44.625954,16.442748
2,0.449,-0.669434,0.210938,0.56665,-23.870229,51.908397,12.503817
2,0.46,-0.769531,0.156494,0.465332,-22.015267,71.938931,-4.343511
2,0.465,-0.786621,0.170898,0.404053,-18.389313,79.305344,-8.984733
2,0.471,-0.718506,0.183838,0.369629,-18.0,82.167939,-11.076336
2,0.477,-0.439941,0.084473,0.277344,-18.648855,81.480916,-14.358779
2,0.483,0.083496,-0.162354,0.053955,-6.610687,74.770992,-27.274809
2,0.488,0.737793,0.064697,0.688965,8.374046,21.496183,-48.335878
2,0.494,1.299072,0.663086,1.477295,39.801527,-26.801527,-69.19084
2,0.499,0.751221,1.393555,1.999939,39.885496,-29.251908,-50.40458
2,0.51,-0.676025,0.882324,1.595703,-5.763359,3.641221,-54.358779
2,0.515,-0.320068,0.098389,1.019531,46.442748,150.122137,-42.290076
2,0.522,-0.576416,0.217529,1.150391,16.48855,141.282443,-31.793893
2,0.527,-0.695557,0.538574,1.109131,-45.290076,103.78626,-31.183206
2,0.533,-0.357422,0.316162,0.994873,-70.48855,105.717557,-31.748092
2,0.538,-0.193604,0.21875,1.101807,-63.251908,115.419847,-31.145038
2,0.549,0.136475,-0.057129,1.361328,-41.534351,148.801527,-44.80916
2,0.554,-0.043701,0.096924,1.159668,-55.885496,125.251908,-52.549618
2,0.561,-0.085205,0.208252,0.991455,-39.541985,98.183206,-52.862595
2,0.566,-0.189697,0.390137,0.932861,-35.862595,89.580153,-51.160305
2,0.572,-0.311523,0.684326,0.96582,-45.183206,95.526718,-44.10687
2,0.582,-0.325928,0.745361,0.996094,-32.137405,130.10687,-20.801527
2,0.588,-0.293457,0.608398,1.06665,-21.931298,139.335878,-15.740458
3,0.095,-0.345947,0.669434,0.999512,-47.267176,80.824427,-60.816794
3,0.101,-0.325195,0.645752,1.016602,-45.717557,92.129771,-71.671756
3,0.112,-0.433105,0.598633,1.14209,-38.137405,102.641221,-94.083969
3,0.117,-0.545898,0.717529,1.163086,-34.587786,109.541985,-103.328244
3,0.123,-0.552246,0.752197,1.166016,-30.068702,109.366412,-110.656489
3,0.128,-0.578857,0.749268,1.20166,-26.801527,105.549618,-118.557252
3,0.134,-0.592529,0.757568,1.280273,-22.19084,98.061069,-123.167939
3,0.145,-0.417969,0.4646,1.447754,-29.221374,87.305344,-117.633588
3,0.151,-0.376465,0.466309,1.441895,-26.992366,83.541985,-104.580153
3,0.156,-0.338135,0.747559,1.400635,-17.908397,80.59542,-95.465649
3,0.161,-0.311768,1.088379,1.373047,-11.320611,83.519084,-86.274809
3,0.167,-0.244141,1.300293,1.324463,-5.839695,80.778626,-79.938931
3,0.179,0.152344,1.064697,1.264648,-18.274809,52.763359,-63.137405
3,0.184,0.316162,0.885742,1.167969,-26.091603,41.435115,-54.312977
3,0.19,0.393311,0.822266,1.111084,-17.938931,36.656489,-47.900763
3,0.195,0.448486,0.836182,1.056885,-8.648855,37.183206,-40.015267
3,0.2,0.491943,0.89917,1.10498,-2.061069,41.038168,-33.038168
3,0.206,0.511475,0.911621,1.067627,12.603053,35.40458,-26.129771
3,0.211,0.544922,0.892578,1.08667,17.465649,24.80916,-19.870229
3,0.223,0.611084,0.787354,1.026611,2.862595,0.145038,-9.992366
3,0.229,0.645508,0.746094,0.977783,4.954198,-8.694656,-3.992366
3,0.234,0.6604,0.722656,0.965088,13.274809,-13.427481,2.137405
3,0.239,0.633789,0.726807,0.973633,18.916031,-19.977099,9.076336
3,0.245,0.593994,0.715088,0.982178,18.877863,-28.847328,15.526718
3,0.25,0.563477,0.694824,0.976074,16.412214,-40.068702,22.427481
3,0.262,0.498779,0.640137,0.966797,19.076336,-55.954198,36.885496
3,0.268,0.449463,0.621582,0.923096,22.931298,-62.648855,44.519084
3,0.273,0.43042,0.615479,0.894775,26.206107,-60.603053,51.78626
3,0.278,0.334961,0.603271,0.902344,32.854962,-66.251908,59.984733
3,0.284,0.25708,0.617432,0.93457,34.244275,-71.580153,68.053435
3,0.295,0.150635,0.590576,0.913818,27.396947,-81.89313,83.458015
3,0.301,0.102783,0.572998,0.921143,25.526718,-87.610687,91.427481
3,0.307,0.078125,0.531494,0.87915,26.824427,-91.129771,98.694656
3,0.312,0.052002,0.506836,0.873291,27.748092,-89.938931,105.183206
3,0.317,-0.005859,0.477051,0.856445,31.290076,-92.442748,110.923664
3,0.328,-0.119385,0.45166,0.912354,30.351145,-100.366412,120.10687
3,0.334,-0.180664,0.437988,0.92041,28.343511,-102.51145,123.877863
3,0.339,-0.216309,0.423828,0.947998,28.007634,-103.916031,127.358779
3,0.346,-0.273193,0.39624,0.932861,30.435115,-104.977099,130.015267
3,0.351,-0.294922,0.367188,0.918457,30.549618,-111.541985,131.312977
3,0.362,-0.33374,0.288086,0.907715,31.022901,-117.984733,131.687023
3,0.367,-0.347656,0.251221,0.882812,31.091603,-122.450382,129.854962
3,0.373,-0.350342,0.23291,0.866211,32.015267,-126.175573,126.832061
3,0.378,-0.367188,0.229736,0.857178,32.435115,-128.358779,123.587786
3,0.39,-0.411621,0.23291,0.860352,31.877863,-135.679389,116.969466
3,0.395,-0.423828,0.24292,0.868896,26.145038,-138.847328,113.70229
3,0.401,-0.426025,0.239746,0.824463,25.793893,-141.320611,110.816794
3,0.406,-0.432861,0.25708,0.865723,24.78626,-143.099237,108.282443
3,0.412,-0.451416,0.26001,0.869873,26.229008,-142.931298,107.0
3,0.422,-0.441406,0.252686,0.818604,23.992366,-150.572519,102.862595
3,0.429,-0.423584,0.245605,0.774414,22.412214,-153.114504,99.274809
3,0.434,-0.407715,0.209473,0.71875,24.068702,-152.633588,95.091603
3,0.44,-0.379639,0.192871,0.738281,23.80916,-146.320611,90.465649
3,0.445,-0.35791,0.16626,0.704102,27.679389,-142.274809,83.229008
3,0.451,-0.279785,0.138184,0.70874,25.015267,-143.465649,75.503817
3,0.461,-0.388672,0.180176,0.918213,53.427481,-150.251908,62.099237
3,0.467,-0.367676,0.165039,0.970947,45.618321,-155.305344,55.290076
3,0.473,-0.343018,0.178955,0.956299,42.267176,-158.244275,49.083969
3,0.479,-0.312988,0.206055,0.976807,53.221374,-152.717557,45.687023
3,0.484,-0.22168,0.208984,0.88208,64.78626,-141.396947,43.145038
3,0.495,-0.317383,0.30127,0.95459,77.244275,-134.29771,42.572519
3,0.5,-0.317383,0.318115,0.93335,72.549618,-154.610687,46.022901
3,0.506,-0.329102,0.359619,0.993652,65.290076,-182.236641,48.10687
3,0.511,-0.229004,0.395752,0.854736,62.10687,-177.312977,52.0
4,0.66,-0.020996,0.231201,1.341797,-17.793893,70.022901,-2.687023
4,0.665,0.143555,0.533936,1.324951,-10.564885,31.114504,28.145038
4,0.67,-0.005615,1.166504,1.130615,5.549618,40.740458,43.328244
4,0.681,0.329834,0.568359,1.11792,-8.725191,20.625954,35.412214
4,0.687,0.313232,0.416016,1.169434,-14.793893,-0.725191,35.206107
4,0.692,0.409424,0.415771,1.126709,-15.19084,-13.664122,45.984733
4,0.697,0.430908,0.267578,1.116699,-11.557252,-16.091603,52.862595
4,0.704,0.31543,0.143066,1.173584,-6.137405,-22.656489,49.709924
4,0.709,0.226562,0.175781,1.208984,-2.114504,-43.21374,39.656489
4,0.715,0.250732,0.25708,1.204834,-4.358779,-61.328244,29.465649
4,0.726,0.194092,0.273926,1.290283,-4.267176,-138.587786,17.709924
4,0.731,0.4021,0.234863,0.947021,-10.877863,-85.083969,11.992366
4,0.736,0.373291,0.242432,1.064697,9.618321,-85.541985,14.419847
4,0.743,0.208496,0.230225,1.111572,7.244275,-90.557252,9.78626
4,0.748,0.235107,0.274414,1.013672,9.870229,-83.557252,8.664122
4,0.754,0.188721,0.29541,1.056885,12.78626,-90.633588,9.244275
4,0.765,0.136475,0.37207,1.013916,17.847328,-99.70229,14.51145
4,0.77,0.107666,0.416504,0.994141,20.641221,-105.21374,19.0
4,0.775,0.100342,0.442871,0.991699,20.725191,-104.763359,23.48855
4,0.781,0.057861,0.470459,1.009033,21.778626,-106.152672,28.366412
4,0.787,-0.01416,0.487793,1.005859,24.152672,-121.633588,33.526718
4,0.793,-0.012939,0.494385,0.978516,22.824427,-125.564885,38.221374
4,0.804,-0.083984,0.508789,0.969727,24.877863,-128.007634,46.961832
4,0.809,-0.12793,0.509521,0.954346,24.48855,-124.839695,50.045802
4,0.814,-0.169434,0.528809,0.97876,23.007634,-118.0,53.015267
4,0.82,-0.264893,0.541504,0.986572,25.923664,-110.175573,56.984733
4,0.825,-0.355957,0.525879,1.018799,25.755725,-101.687023,61.442748
4,0.832,-0.439697,0.519043,1.005859,27.351145,-97.320611,65.259542
4,0.843,-0.449219,0.507568,0.937988,21.167939,-91.435115,66.473282
4,0.848,-0.454834,0.507812,0.936279,14.022901,-88.496183,65.923664
4,0.853,-0.478027,0.497314,0.922607,9.473282,-87.969466,65.175573
4,0.859,-0.484619,0.487549,0.887939,4.572519,-87.625954,64.068702
4,0.864,-0.485596,0.480713,0.900146,-4.389313,-90.885496,62.099237
4,0.871,-0.466553,0.453857,0.84668,-7.503817,-91.114504,60.717557
4,0.882,-0.432373,0.370361,0.776611,-15.40458,-89.183206,56.572519
4,0.887,-0.378662,0.351562,0.750732,-28.099237,-75.419847,52.916031
4,0.892,-0.410645,0.331055,0.742676,-23.923664,-84.496183,51.083969
4,0.898,-0.415283,0.297607,0.729248,-22.015267,-91.145038,49.442748
4,0.903,-0.394531,0.293213,0.705322,-22.030534,-93.740458,47.656489
4,0.915,-0.34082,0.268066,0.688477,-18.916031,-98.862595,44.70229
4,0.921,-0.362061,0.245361,0.670654,-18.198473,-96.778626,42.847328
4,0.926,-0.40918,0.2229,0.684326,-13.290076,-94.328244,41.916031
4,0.931,-0.405029,0.242676,0.685791,-16.923664,-85.160305,38.870229
4,0.937,-0.439209,0.218994,0.699219,-11.473282,-82.29771,35.694656
4,0.948,-0.622314,0.266113,1.006592,5.610687,-92.496183,31.671756
4,0.953,-0.604004,0.284424,0.884521,-16.053435,-61.152672,28.526718
4,0.96,-0.67041,0.250977,0.879883,-3.076336,-71.885496,30.564885
4,0.965,-0.731201,0.23877,1.077148,-32.931298,-40.648855,29.625954
4,0.97,-0.760742,0.235352,0.957031,34.541985,-46.435115,50.282443
4,0.976,-0.97998,0.160156,1.293457,10.557252,-135.183206,47.122137
4,0.987,-0.605225,0.19458,0.821533,22.847328,-137.244275,52.366412
4,0.992,-0.522705,0.174805,0.749023,30.198473,-139.916031,50.465649
4,0.999,-0.512451,0.223877,0.729736,15.70229,-138.129771,41.885496
4,1.004,-0.490479,0.231201,0.656738,13.648855,-124.916031,34.496183
4,1.009,-0.500244,0.195801,0.631348,25.625954,-121.442748,28.793893
4,1.015,-0.541016,0.161865,0.615234,33.648855,-123.854962,22.29771
4,1.026,-0.576172,0.172852,0.540771,34.625954,-119.946565,10.572519
4,1.031,-0.580811,0.171143,0.499512,35.045802,-114.221374,7.473282
4,1.036,-0.567139,0.211182,0.448975,35.351145,-108.450382,6.068702
4,1.043,-0.573486,0.256104,0.407959,35.442748,-102.221374,5.938931
4,1.048,-0.60376,0.29126,0.382324,33.083969,-93.801527,7.221374
4,1.054,-0.629883,0.279785,0.3479,26.549618,-87.671756,8.091603
4,1.059,-0.647461,0.253906,0.307617,18.916031,-81.175573,9.534351
4,1.065,-0.669434,0.20874,0.253418,13.442748,-73.343511,10.572519
5,0.091,-0.51123,0.470947,0.979248,66.381679,-73.709924,108.946565
5,0.091,-0.51123,0.470947,0.979248,66.381679,-73.709924,108.946565
5,0.097,-0.587402,0.498047,0.992188,68.29771,-71.801527,115.183206
5,0.102,-0.674561,0.465332,0.981689,74.396947,-81.603053,119.519084
5,0.109,-0.591797,0.448975,0.920654,49.152672,-68.10687,116.274809
5,0.12,-0.590576,0.365479,0.863281,24.51145,-75.610687,110.824427
5,0.125,-0.601318,0.318604,0.888672,15.610687,-83.801527,108.160305
5,0.13,-0.606689,0.256104,0.876465,2.641221,-86.80916,106.78626
5,0.136,-0.650146,0.216064,0.852783,-1.725191,-91.167939,103.312977
5,0.141,-0.694092,0.207031,0.852783,-15.274809,-86.259542,101.89313
5,0.153,-0.725098,0.149902,0.799561,-22.389313,-111.374046,96.374046
5,0.159,-0.688965,0.111816,0.781494,-25.0,-109.236641,92.351145
5,0.164,-0.677002,0.078125,0.833008,-32.358779,-104.839695,91.473282
5,0.169,-0.669922,-0.026367,0.847656,-26.305344,-102.816794,93.587786
5,0.18,-0.681885,0.049561,0.85083,-29.984733,-90.274809,94.519084
5,0.186,-0.78418,0.087891,0.868896,-25.923664,-78.564885,96.534351
5,0.191,-0.807373,0.056396,0.903809,-31.534351,-66.435115,99.305344
5,0.198,-0.937744,0.100586,0.912354,-29.0,-53.519084,100.610687
5,0.203,-0.97583,0.132568,0.92334,-27.19084,-47.236641,101.335878
5,0.214,-0.999023,0.19165,0.895752,-39.984733,-53.396947,93.458015
5,0.219,-0.978271,0.166992,0.838867,-42.236641,-66.763359,87.167939
5,0.225,-0.972168,0.152344,0.8125,-59.305344,-73.969466,73.503817
5,0.23,-0.960449,0.149658,0.672119,-53.641221,-77.114504,63.007634
5,0.237,-0.983643,0.132324,0.666992,-56.862595,-99.320611,50.412214
5,0.247,-0.80127,0.44873,0.327881,-46.473282,-129.625954,20.656489
5,0.253,-0.652832,0.360596,0.348145,-36.458015,-129.320611,3.244275
5,0.258,-0.629395,-0.070557,0.393066,-32.0,-121.480916,-15.900763
5,0.264,-0.676025,-0.274902,0.347412,-15.328244,-108.923664,-31.969466
5,0.269,-0.73999,-0.166504,0.318115,20.381679,-101.80916,-41.152672
5,0.275,-0.806396,0.050537,0.30249,46.763359,-90.015267,-45.083969
5,0.286,-0.830811,0.443604,0.250488,54.603053,-70.458015,-38.503817
5,0.292,-0.818848,0.488281,0.264648,49.114504,-59.801527,-29.59542
5,0.297,-0.791016,0.475586,0.306641,34.282443,-49.129771,-19.854962
5,0.303,-0.757324,0.471436,0.338867,19.732824,-44.206107,-11.038168
5,0.308,-0.720947,0.458984,0.377197,7.0,-39.541985,-3.038168
5,0.314,-0.685303,0.421387,0.384521,-3.824427,-36.366412,3.679389
5,0.319,-0.635498,0.385986,0.432861,-15.618321,-35.29771,7.778626
5,0.325,-0.5625,0.346191,0.419922,-12.519084,-35.335878,11.282443
5,0.331,-0.470703,0.30127,0.490723,-20.099237,-38.977099,11.648855
5,0.342,-0.450684,0.341309,0.542725,-37.274809,-37.732824,4.076336
5,0.347,-0.386475,0.393311,0.419434,-10.793893,-20.633588,5.954198
5,0.353,-0.405029,0.382812,0.48999,-3.70229,-6.900763,4.541985
5,0.358,-0.499023,0.404785,0.538574,-12.633588,-2.442748,-1.282443
5,0.363,-0.529785,0.439941,0.563232,-22.938931,1.534351,-7.374046
5,0.37,-0.567383,0.442139,0.504883,-15.992366,8.435115,-10.160305
5,0.375,-0.587402,0.428223,0.50708,-12.648855,18.534351,-11.503817
5,0.381,-0.6875,0.386963,0.484863,-16.923664,24.450382,-15.954198
5,0.386,-1.040039,0.067383,0.236816,-29.328244,60.320611,-45.480916
5,0.391,-1.072754,0.043701,0.25293,-23.549618,104.541985,-74.793893
5,0.402,-0.663086,0.04248,-0.051514,-26.732824,85.763359,-69.862595
5,0.409,0.633545,-0.170654,-0.052002,-54.908397,43.526718,-70.251908
5,0.414,1.999939,0.66748,0.4646,-14.748092,45.89313,-98.877863
5,0.42,1.599609,0.479492,0.484863,11.763359,68.274809,-105.045802
5,0.425,-0.868652,1.277344,0.575195,15.374046,162.229008,-69.21374
5,0.43,-1.514404,1.235596,1.249268,21.618321,180.351145,-57.076336
5,0.441,-1.097168,1.07373,1.947266,-10.374046,250.129771,-77.160305
5,0.447,-1.110107,1.155273,1.966309,-28.847328,250.129771,-90.045802
5,0.453,-0.739746,1.046387,1.999939,-46.19084,250.129771,-14.435115
5,0.459,-1.477295,-0.87915,1.697754,-3.183206,250.129771,-34.465649
5,0.469,-1.030273,0.210693,0.889893,-43.458015,-24.221374,-68.908397
5,0.475,-0.611084,0.702881,0.465576,-66.458015,4.580153,-60.198473
5,0.48,-0.743896,0.956299,0.59375,-61.671756,57.183206,-36.259542
5,0.486,-0.810791,0.81958,0.78833,-53.641221,85.80916,-8.0
5,0.491,-0.671143,0.535645,0.949463,-56.442748,73.625954,6.755725
6,0.002,0.458008,0.327148,1.137939,36.137405,-105.801527,-22.114504
6,0.009,0.394531,0.331299,1.099121,43.580153,-111.229008,-9.564885
6,0.015,0.330078,0.343018,1.065186,46.519084,-118.763359,-0.358779
6,0.021,0.288574,0.330566,1.048828,48.442748,-122.114504,8.229008
6,0.026,0.180908,0.325684,1.083496,41.801527,-124.496183,14.954198
6,0.032,0.113281,0.26123,1.068604,49.175573,-115.083969,22.938931
6,0.037,0.029297,0.25415,1.098145,52.656489,-114.374046,30.244275
6,0.043,-0.054443,0.270752,1.082031,55.59542,-115.534351,35.984733
6,0.048,-0.119629,0.276367,1.084473,51.885496,-118.465649,40.450382
6,0.06,-0.250244,0.226807,1.069336,48.167939,-124.793893,49.061069
6,0.065,-0.338867,0.195068,1.093262,49.137405,-126.114504,53.519084
6,0.071,-0.409668,0.174316,1.101562,50.801527,-127.900763,58.068702
6,0.076,-0.463135,0.163818,1.061523,52.450382,-131.290076,61.21374
6,0.082,-0.471191,0.174316,1.0271,52.29771,-130.282443,62.801527
6,0.087,-0.523682,0.177734,1.022461,50.78626,-131.732824,63.167939
6,0.092,-0.577393,0.161133,1.050781,46.732824,-127.374046,63.541985
6,0.099,-0.650635,0.111084,1.064941,47.129771,-124.687023,64.053435
6,0.104,-0.690186,0.089111,1.068848,49.244275,-116.480916,63.923664
6,0.115,-0.729492,0.060547,1.016846,51.78626,-121.282443,63.732824
6,0.121,-0.677979,0.03833,1.000488,46.328244,-106.480916,61.885496
6,0.126,-0.705078,0.01416,0.997314,40.503817,-113.870229,59.80916
6,0.131,-0.705078,0.01416,0.997314,40.503817,-113.870229,59.80916
6,0.136,-0.705078,0.01416,0.997314,40.503817,-113.870229,59.80916
6,0.143,-0.555664,-0.014648,0.899902,30.519084,-121.068702,48.633588
6,0.149,-0.666504,0.005127,0.951416,39.061069,-139.320611,43.030534
6,0.16,-0.826904,-0.145752,1.113281,66.229008,-153.290076,38.015267
6,0.165,-0.809326,-0.135254,1.147705,67.572519,-152.022901,33.618321
6,0.17,-0.78125,-0.094238,1.044189,68.167939,-153.725191,28.21374
6,0.176,-0.709229,-0.097168,0.940918,68.633588,-150.587786,20.251908
6,0.182,-0.614746,-0.171387,0.805664,68.977099,-133.854962,11.854962
6,0.188,-0.591797,-0.23877,0.765381,69.816794,-131.129771,2.992366
6,0.199,-0.638672,-0.283691,0.693848,80.80916,-113.80916,-13.068702
6,0.204,-0.702393,-0.254395,0.684814,82.931298,-108.80916,-20.709924
6,0.209,-0.755859,-0.225586,0.624023,87.458015,-103.694656,-27.580153
6,0.215,-0.815918,-0.187256,0.585693,80.78626,-101.366412,-33.725191
6,0.227,-0.796875,-0.094238,0.411621,67.519084,-98.648855,-41.435115
6,0.232,-0.781494,-0.055908,0.31543,59.381679,-93.396947,-43.198473
6,0.238,-0.778564,-0.009521,0.26416,51.80916,-88.099237,-43.10687
6,0.243,-0.785889,0.039307,0.204102,43.244275,-82.740458,-41.984733
6,0.248,-0.7854,0.116943,0.159912,33.48855,-74.656489,-39.076336
6,0.254,-0.786133,0.169189,0.175293,23.862595,-65.816794,-34.51145
6,0.265,-0.769043,0.282471,0.258789,9.015267,-35.51145,-20.007634
6,0.271,-0.734131,0.317871,0.304932,0.007634,-24.206107,-11.274809
6,0.276,-0.681641,0.341309,0.349365,-9.183206,-13.664122,-1.961832
6,0.282,-0.614258,0.373535,0.374268,-16.78626,-4.251908,7.656489
6,0.287,-0.559082,0.395996,0.392578,-24.282443,5.78626,16.320611
6,0.293,-0.50708,0.399902,0.418701,-31.030534,13.694656,24.557252
6,0.298,-0.489502,0.391846,0.454834,-36.862595,21.229008,32.10687
6,0.304,-0.492676,0.379395,0.488037,-41.938931,25.961832,38.923664
6,0.31,-0.524414,0.366455,0.488525,-46.442748,29.587786,44.633588
6,0.315,-0.565186,0.349854,0.469238,-50.053435,33.839695,49.954198
6,0.321,-0.62793,0.312012,0.449463,-54.206107,38.78626,55.412214
6,0.326,-0.674561,0.280029,0.387939,-57.045802,43.732824,60.59542
6,0.337,-0.723389,0.211914,0.265137,-61.160305,56.21374,68.564885
6,0.343,-0.772949,0.162842,0.230713,-60.801527,63.51145,70.717557
6,0.348,-0.844482,0.051758,0.199463,-60.587786,72.442748,69.137405
6,0.354,-0.835205,-0.138672,0.196533,-53.473282,80.473282,58.961832
6,0.36,-0.590332,-0.161377,0.253906,-32.564885,84.21374,49.366412
6,0.365,-0.178711,-0.029297,0.436523,-10.419847,83.977099,33.374046
6,0.371,1.063477,-0.076172,0.742432,7.541985,66.038168,3.282443
6,0.382,1.999939,1.675293,1.400391,48.694656,16.770992,-93.625954
6,0.387,-0.844482,1.039795,1.806396,-2.221374,144.19084,-59.954198
6,0.392,-1.950684,0.046875,1.999939,-19.343511,159.10687,-55.984733
6,0.399,-1.021729,-0.048828,1.595703,-7.816794,40.877863,-42.656489
7,0.566,-0.721191,0.12085,0.969727,-76.282443,212.885496,-49.641221
7,0.571,-0.798828,0.137939,0.82251,-94.442748,220.496183,-42.152672
7,0.577,-1.024902,0.139648,1.084717,-27.992366,125.740458,-26.381679
7,0.583,-0.715332,0.240967,1.105469,-60.496183,176.465649,-22.717557
7,0.594,-0.751221,0.309814,1.12207,-56.206107,139.083969,-18.977099
7,0.599,-0.678467,0.288086,1.181396,-55.290076,111.587786,-18.328244
7,0.605,-0.501465,0.226807,1.193848,-67.854962,101.175573,-17.450382
7,0.61,-0.360107,0.167969,1.18335,-65.923664,89.885496,-15.938931
7,0.616,-0.271973,0.0979,1.250488,-65.564885,65.717557,-13.961832
7,0.621,-0.196045,0.066406,1.214844,-56.053435,48.099237,-11.358779
7,0.627,-0.183838,0.117432,1.240234,-53.259542,19.236641,-7.198473
7,0.638,0.006592,0.179932,1.18042,-41.816794,-28.755725,0.29771
7,0.644,0.156982,0.232666,0.938965,-32.687023,-34.557252,2.068702
7,0.649,0.243652,0.273926,0.835693,-27.473282,-33.152672,3.908397
7,0.655,0.267578,0.251709,0.812012,-24.541985,-34.396947,4.992366
7,0.66,0.275635,0.194824,0.803223,-19.022901,-42.496183,6.160305
7,0.665,0.264893,0.176514,0.811523,-10.183206,-51.832061,8.015267
7,0.672,0.24707,0.193115,0.825195,-2.267176,-59.343511,10.396947
7,0.677,0.206299,0.218262,0.864014,4.358779,-69.48855,12.916031
7,0.688,0.116455,0.243164,0.906006,12.435115,-92.374046,17.335878
7,0.694,0.086914,0.25293,0.91626,15.687023,-105.145038,19.793893
7,0.699,0.062744,0.25415,0.923096,19.0,-115.480916,21.770992
7,0.704,0.03418,0.257812,0.897217,23.053435,-124.21374,23.770992
7,0.711,0.013916,0.274902,0.878174,27.725191,-132.351145,26.083969
7,0.716,-0.023438,0.274902,0.859131,32.625954,-140.007634,28.122137
7,0.722,-0.04541,0.284668,0.835693,37.198473,-147.10687,30.183206
7,0.732,-0.140869,0.286133,0.831055,46.725191,-159.877863,35.519084
7,0.738,-0.192627,0.292725,0.843994,51.954198,-165.900763,38.78626
7,0.743,-0.258057,0.308838,0.854004,56.763359,-171.717557,42.206107
7,0.749,-0.310791,0.325684,0.870605,60.610687,-177.381679,45.938931
7,0.755,-0.384277,0.338867,0.880371,63.870229,-182.89313,50.610687
7,0.761,-0.432617,0.349121,0.894531,66.541985,-187.748092,55.145038
7,0.766,-0.490967,0.362549,0.907471,68.748092,-192.038168,60.709924
7,0.777,-0.593018,0.354004,0.913574,71.870229,-198.603053,72.908397
7,0.782,-0.636475,0.356689,0.933838,72.679389,-201.580153,79.351145
7,0.788,-0.679199,0.353516,0.942627,73.412214,-204.40458,85.732824
7,0.793,-0.721924,0.344482,0.968262,74.137405,-205.854962,91.717557
7,0.8,-0.751953,0.319336,0.98584,74.526718,-206.450382,97.21374
7,0.805,-0.801758,0.281494,1.030029,75.129771,-207.603053,102.847328
7,0.816,-0.905029,0.219482,1.124023,78.572519,-207.633588,108.519084
7,0.821,-0.958496,0.193848,1.141113,79.51145,-206.458015,111.396947
7,0.827,-1.021973,0.189453,1.22876,70.740458,-208.305344,112.076336
7,0.832,-1.048584,0.134521,1.150879,81.694656,-202.931298,113.633588
7,0.839,-1.093018,0.090088,1.21875,81.221374,-195.78626,113.824427
7,0.849,-1.213379,0.032227,1.174561,80.358779,-201.038168,112.030534
7,0.855,-1.237305,-0.001465,1.097656,77.091603,-203.870229,108.633588
7,0.86,-1.249756,-0.051758,1.049316,80.007634,-202.015267,104.610687
7,0.866,-1.29248,-0.078857,1.004883,75.755725,-205.48855,100.534351
7,0.871,-1.315674,-0.096436,0.876953,73.984733,-206.038168,92.244275
7,0.883,-1.346924,-0.141113,0.641357,72.206107,-191.183206,74.160305
7,0.888,-1.359619,-0.160645,0.535156,75.221374,-178.221374,64.206107
7,0.894,-1.278564,-0.155518,0.385254,80.312977,-165.122137,55.366412
7,0.899,-1.396729,-0.193359,0.294922,82.984733,-144.854962,41.175573
7,0.905,-1.348145,-0.246094,0.186035,86.862595,-131.572519,30.221374
7,0.91,-1.331543,-0.292969,0.082275,90.70229,-117.679389,18.793893
7,0.921,-1.272217,-0.407959,-0.015381,94.366412,-80.236641,-1.610687
7,0.927,-1.268311,-0.466309,-0.026367,91.061069,-66.290076,-9.221374
7,0.933,-1.250244,-0.465332,-0.055176,89.030534,-52.076336,-14.48855
7,0.938,-1.262451,-0.4021,-0.032227,79.419847,-38.78626,-16.305344
7,0.944,-1.286133,-0.327881,-0.036133,69.763359,-19.473282,-14.59542
7,0.955,-1.331299,-0.19458,-0.006592,38.748092,3.015267,-7.656489
7,0.96,-1.300781,-0.155029,-0.004639,22.954198,14.267176,-4.564885
7,0.965,-1.263184,-0.14209,0.008057,9.656489,23.748092,-2.900763
7,0.972,-1.202881,-0.109131,0.012939,-4.290076,32.687023,-3.778626
8,0.644,-0.721436,0.222412,1.020996,-58.389313,123.648855,-44.114504
8,0.649,-0.667725,0.31665,1.069336,-60.580153,115.641221,-37.038168
8,0.655,-0.592041,0.429443,1.145508,-52.030534,105.923664,-24.274809
8,0.66,-0.520264,0.594971,1.197998,-40.725191,98.328244,-13.931298
8,0.671,-0.131104,0.38623,1.190186,-39.274809,49.053435,-5.992366
8,0.677,0.121094,0.266602,1.227051,-34.175573,22.633588,-7.312977
8,0.683,0.248779,0.265625,1.241943,-22.862595,4.083969,-5.564885
8,0.688,0.292969,0.373535,1.171875,-11.29771,-10.030534,-2.519084
8,0.694,0.30249,0.401855,1.127197,-8.862595,-23.427481,0.015267
8,0.699,0.305176,0.377441,1.111084,-8.358779,-45.076336,0.435115
8,0.705,0.358154,0.310791,1.037354,-7.564885,-66.740458,0.816794
8,0.71,0.379883,0.308838,0.999268,-3.984733,-78.923664,1.10687
8,0.716,0.332275,0.297363,1.042725,1.328244,-84.366412,2.053435
8,0.722,0.286621,0.302246,1.075439,8.251908,-96.793893,4.503817
8,0.727,0.179688,0.345215,1.154297,14.206107,-131.21374,7.587786
8,0.738,0.26001,0.368408,0.972656,25.068702,-94.572519,13.992366
8,0.744,0.180176,0.354248,1.002686,35.694656,-91.045802,18.59542
8,0.749,0.094482,0.374023,1.03125,32.725191,-108.122137,21.091603
8,0.754,0.076904,0.393066,0.98291,31.221374,-114.732824,24.259542
8,0.761,0.037842,0.389648,0.970947,30.175573,-119.366412,27.114504
8,0.766,-0.02832,0.391357,0.974365,34.778626,-120.274809,31.793893
8,0.772,-0.088135,0.416992,1.02124,33.015267,-128.122137,36.328244
8,0.777,-0.202148,0.41333,1.0896,31.328244,-138.839695,42.648855
8,0.788,-0.377686,0.415527,1.12793,32.51145,-159.183206,57.839695
8,0.793,-0.430908,0.443115,1.114502,36.343511,-164.541985,65.832061
8,0.799,-0.462158,0.461914,1.085938,36.328244,-167.541985,72.259542
8,0.805,-0.512451,0.453613,1.057373,34.778626,-172.114504,77.870229
8,0.811,-0.540771,0.411377,1.020264,35.007634,-173.618321,82.694656
8,0.821,-0.614746,0.340332,1.019043,35.015267,-170.549618,89.40458
8,0.827,-0.663818,0.322021,1.022705,35.419847,-169.793893,92.076336
8,0.832,-0.696533,0.312256,1.023438,35.992366,-167.755725,94.687023
8,0.838,-0.722412,0.30249,1.004639,36.992366,-164.931298,96.473282
8,0.844,-0.746826,0.298584,1.010986,37.053435,-162.206107,98.870229
8,0.85,-0.757568,0.290527,0.98584,38.854962,-160.122137,101.458015
8,0.861,-0.757324,0.251221,0.935547,39.450382,-154.305344,102.900763
8,0.866,-0.7771,0.217773,0.945068,36.541985,-150.801527,101.251908
8,0.871,-0.779541,0.151611,0.951416,34.603053,-146.656489,98.114504
8,0.877,-0.807373,0.08667,0.965088,36.427481,-145.351145,95.977099
8,0.882,-0.830078,0.026367,0.989014,38.229008,-141.351145,94.351145
8,0.894,-0.919189,0.003174,1.024414,49.625954,-133.946565,91.458015
8,0.9,-0.93042,0.010254,0.967285,53.259542,-131.854962,88.290076
8,0.905,-0.932129,0.030273,0.924316,52.70229,-127.992366,83.916031
8,0.91,-0.941406,0.021484,0.855957,52.480916,-121.862595,79.480916
8,0.916,-0.946533,-0.00415,0.790527,52.770992,-121.038168,74.954198
8,0.921,-0.927246,-0.016357,0.717041,50.183206,-119.007634,70.427481
8,0.933,-0.913574,-0.019531,0.541016,52.206107,-110.748092,61.801527
8,0.938,-0.931152,-0.009277,0.498047,48.458015,-105.198473,56.137405
8,0.944,-0.955322,-0.020508,0.420166,45.694656,-96.557252,51.251908
8,0.949,-0.983887,-0.021729,0.355957,45.374046,-91.450382,47.076336
8,0.955,-1.028564,-0.034668,0.344727,41.236641,-86.053435,43.961832
8,0.96,-1.050049,-0.063232,0.306152,36.114504,-75.541985,40.969466
8,0.966,-1.058838,-0.111084,0.285156,33.725191,-68.832061,38.610687
8,0.977,-1.038574,-0.19043,0.201904,22.755725,-48.664122,31.977099
8,0.983,-1.03125,-0.231689,0.166504,12.916031,-40.854962,27.564885
8,0.988,-1.013916,-0.273682,0.118896,11.358779,-31.519084,23.244275
8,0.994,-1.029541,-0.296143,0.112305,2.89313,-19.908397,19.206107
8,0.999,-1.069824,-0.289551,0.138672,-2.068702,-7.59542,15.694656
8,1.005,-1.120117,-0.277588,0.179932,-1.557252,2.366412,13.21374
8,1.01,-1.1604,-0.212402,0.22583,-4.954198,9.923664,11.099237
8,1.016,-1.161865,-0.163818,0.231445,-11.549618,14.931298,8.778626
8,1.027,-1.069824,-0.098633,0.186768,-22.725191,18.465649,5.633588
8,1.033,-0.997314,-0.062988,0.151611,-25.206107,25.19084,5.473282
8,1.038,-0.965088,-0.040527,0.142822,-28.946565,33.198473,5.694656
8,1.044,-0.992432,-0.064453,0.101318,-28.152672,45.351145,2.603053
9,0.202,-0.443604,0.412109,1.068848,-40.251908,94.29771,-42.80916
9,0.208,-0.434814,0.618164,1.149414,-34.465649,91.900763,-30.137405
9,0.213,-0.499756,0.181396,1.243164,-19.137405,70.236641,-8.70229
9,0.218,-0.332764,1.42041,1.333496,16.076336,67.412214,15.832061
9,0.224,-0.179932,1.48584,1.274902,29.503817,53.396947,34.083969
9,0.229,-0.088623,1.229736,1.140381,25.877863,40.900763,51.389313
9,0.236,0.022461,0.909424,0.996582,10.824427,26.969466,59.267176
9,0.246,0.249512,0.767334,0.900879,-6.045802,10.938931,63.618321
9,0.252,0.303223,0.618652,0.936035,2.450382,8.671756,65.755725
9,0.257,0.355957,0.401855,1.038574,12.480916,8.534351,65.885496
9,0.263,0.359863,0.258057,1.052734,20.48855,6.312977,66.709924
9,0.268,0.375488,0.231689,1.076172,27.587786,2.312977,64.755725
9,0.274,0.354736,0.349365,1.088623,33.259542,-2.328244,60.572519
9,0.28,0.281982,0.395264,1.124023,35.480916,-7.564885,55.496183
9,0.291,0.20752,0.382324,1.211426,34.839695,-28.396947,46.374046
9,0.296,0.100586,0.448486,1.207764,39.89313,-36.038168,44.59542
9,0.302,0.090088,0.443848,1.197998,45.732824,-48.503817,43.541985
9,0.307,0.059814,0.423584,1.178711,51.122137,-55.618321,43.519084
9,0.313,0.026611,0.401855,1.152588,56.51145,-62.977099,43.351145
9,0.318,-0.012451,0.409424,1.094971,59.374046,-69.671756,44.198473
9,0.324,-0.047363,0.431152,1.051758,60.442748,-73.198473,44.931298
9,0.335,-0.150879,0.472412,0.997314,58.854962,-78.244275,45.671756
9,0.341,-0.204346,0.499756,0.998291,54.839695,-81.068702,46.908397
9,0.346,-0.272461,0.541748,0.991699,49.48855,-85.770992,48.59542
9,0.352,-0.320068,0.567139,1.013428,44.564885,-84.465649,52.229008
9,0.357,-0.382568,0.56958,0.998291,38.923664,-84.274809,56.664122
9,0.362,-0.41626,0.568359,0.965576,32.534351,-84.038168,61.480916
9,0.374,-0.466797,0.564697,0.878174,17.137405,-88.022901,70.641221
9,0.38,-0.478271,0.556641,0.841309,8.335878,-90.282443,74.320611
9,0.385,-0.505859,0.525146,0.809814,0.083969,-92.70229,77.045802
9,0.391,-0.517578,0.496582,0.789551,-7.312977,-92.671756,79.572519
9,0.396,-0.549805,0.463623,0.783936,-11.679389,-92.465649,81.625954
9,0.401,-0.553467,0.434814,0.759766,-12.267176,-85.183206,84.129771
9,0.413,-0.620605,0.376953,0.75415,-14.229008,-84.847328,86.076336
9,0.419,-0.659668,0.362061,0.810547,-12.557252,-91.335878,86.572519
9,0.424,-0.662842,0.342773,0.765381,-11.541985,-93.549618,84.946565
9,0.43,-0.669189,0.314697,0.748291,-9.725191,-91.526718,83.671756
9,0.435,-0.673584,0.292725,0.737549,-6.816794,-89.740458,81.580153
9,0.446,-0.669678,0.22168,0.683594,-1.51145,-88.419847,75.687023
9,0.452,-0.650879,0.179199,0.66333,0.435115,-85.358779,71.824427
9,0.458,-0.651123,0.154541,0.643799,1.167939,-83.175573,67.450382
9,0.463,-0.639404,0.144775,0.603027,1.679389,-81.801527,62.427481
9,0.469,-0.63916,0.141113,0.593506,1.015267,-80.267176,57.244275
9,0.474,-0.637207,0.141113,0.546875,-1.244275,-79.10687,51.496183
9,0.479,-0.632812,0.138672,0.53125,-4.19084,-76.748092,45.366412
9,0.49,-0.636475,0.132324,0.510742,-11.351145,-68.580153,35.076336
9,0.497,-0.665527,0.130127,0.547363,-13.473282,-64.015267,32.290076
9,0.502,-0.711182,0.099121,0.58252,-13.519084,-62.908397,30.618321
9,0.507,-0.722412,0.125977,0.548096,-11.572519,-63.259542,30.030534
9,0.513,-0.724609,0.158203,0.534424,-8.557252,-63.541985,29.374046
9,0.518,-0.746582,0.20459,0.476807,-4.610687,-60.442748,28.679389
9,0.524,-0.734131,0.241943,0.428955,-3.534351,-59.687023,28.129771
9,0.536,-0.753174,0.258057,0.358887,-8.625954,-62.946565,23.358779
9,0.541,-0.691895,0.266357,0.338867,-22.381679,-50.648855,20.030534
9,0.546,-0.687988,0.258301,0.322266,-16.076336,-34.916031,18.648855
9,0.552,-0.751709,0.268799,0.422363,-8.427481,-32.091603,19.19084
9,0.557,-0.781494,0.26709,0.5,-11.961832,-33.045802,18.022901
9,0.563,-0.756104,0.280029,0.457764,-11.51145,-37.656489,18.610687
9,0.568,-0.736572,0.281494,0.408447,-10.160305,-38.129771,19.068702
9,0.58,-0.63623,0.278809,0.358398,-15.312977,-27.419847,18.78626
9,0.585,-0.595703,0.266602,0.334961,-14.48855,-21.045802,18.78626
9,0.591,-0.551025,0.25293,0.343506,-13.030534,-14.816794,18.412214
9,0.596,-0.539062,0.248047,0.343018,-12.832061,-10.503817,17.877863
9,0.602,-0.519043,0.251709,0.349609,-14.251908,-6.687023,16.78626
10,0.268,-0.664307,0.322266,1.037109,43.923664,136.503817,-47.045802
10,0.274,-0.626953,0.413086,1.048584,51.358779,128.374046,-38.389313
10,0.279,-0.757812,0.304688,1.058594,57.061069,127.267176,-33.21374
10,0.291,-0.587646,1.133301,1.308594,63.251908,99.419847,0.175573
10,0.296,-0.411865,1.396973,1.008057,73.473282,93.847328,0.473282
10,0.302,-0.226318,0.969971,1.112549,59.030534,76.29771,-5.740458
10,0.307,0.02002,0.566162,1.008057,18.427481,75.21374,-4.167939
10,0.313,0.011475,0.553223,0.936523,-4.877863,67.587786,-0.900763
10,0.318,0.064453,0.696289,1.061768,-16.931298,59.259542,0.755725
10,0.323,0.202881,0.710205,1.115967,-19.977099,56.763359,3.59542
10,0.329,0.248779,0.552002,1.165283,-14.580153,47.885496,9.351145
10,0.335,0.310303,0.47583,1.173828,-12.954198,39.748092,14.343511
10,0.346,0.421387,0.555664,1.148193,-12.519084,21.793893,18.244275
10,0.352,0.447021,0.577881,1.131104,-15.641221,14.221374,18.480916
10,0.357,0.435791,0.525879,1.144531,-18.282443,3.679389,17.320611
10,0.362,0.451172,0.494629,1.15332,-15.29771,-6.0,17.832061
10,0.368,0.444092,0.482422,1.157227,-9.152672,-15.694656,19.099237
10,0.373,0.43457,0.481689,1.166992,2.969466,-26.10687,21.389313
10,0.38,0.402588,0.473877,1.161621,15.870229,-40.961832,23.969466
10,0.385,0.39209,0.468018,1.122314,29.801527,-50.549618,27.198473
10,0.396,0.322754,0.498779,1.091064,46.160305,-76.709924,31.641221
10,0.401,0.312988,0.504883,1.012939,52.259542,-81.229008,33.335878
10,0.407,0.259033,0.515625,0.976074,57.793893,-79.480916,35.900763
10,0.412,0.184814,0.529785,0.980469,62.564885,-75.931298,39.267176
10,0.419,0.10498,0.542236,1.000488,65.145038,-75.618321,43.236641
10,0.424,0.019531,0.547852,1.03833,63.938931,-76.007634,48.274809
10,0.435,-0.140137,0.567871,1.078369,52.114504,-81.748092,60.572519
10,0.44,-0.211182,0.578369,1.07373,44.824427,-88.068702,67.137405
10,0.446,-0.28125,0.610596,1.058594,35.229008,-97.793893,74.19084
10,0.451,-0.347168,0.612793,1.004395,24.045802,-107.29771,79.648855
10,0.457,-0.38501,0.625488,0.956787,10.877863,-115.389313,84.748092
10,0.468,-0.494141,0.603027,0.934814,-13.763359,-122.587786,92.473282
10,0.474,-0.543701,0.547363,0.911133,-22.839695,-125.625954,95.480916
10,0.479,-0.548584,0.524414,0.876709,-25.748092,-128.770992,100.152672
10,0.485,-0.56665,0.4729,0.827393,-25.419847,-126.664122,102.938931
10,0.49,-0.587891,0.446533,0.817383,-21.778626,-122.458015,103.557252
10,0.501,-0.653076,0.39502,0.787842,-20.717557,-119.900763,104.419847
10,0.508,-0.655762,0.379395,0.763184,-17.59542,-119.984733,104.557252
10,0.513,-0.682129,0.356689,0.746582,-15.351145,-118.549618,103.435115
10,0.518,-0.692139,0.333008,0.724121,-13.526718,-117.900763,101.091603
10,0.524,-0.70166,0.306396,0.703613,-10.198473,-116.503817,97.70229
10,0.535,-0.719482,0.278809,0.665039,-5.282443,-115.335878,89.885496
10,0.54,-0.702148,0.285889,0.634277,-3.923664,-112.618321,85.427481
10,0.545,-0.716553,0.293213,0.635986,-3.229008,-108.328244,80.51145
10,0.552,-0.733643,0.2854,0.626709,-2.80916,-105.458015,75.992366
10,0.557,-0.744141,0.277344,0.619141,-3.053435,-105.931298,71.633588
10,0.563,-0.748779,0.281738,0.588867,-2.725191,-102.236641,67.427481
10,0.574,-0.766113,0.297363,0.566406,-2.099237,-97.679389,60.221374
10,0.579,-0.764648,0.307129,0.536865,-3.007634,-96.534351,56.236641
10,0.584,-0.771973,0.313477,0.488525,-4.748092,-95.916031,51.549618
10,0.591,-0.777588,0.315186,0.483398,-6.763359,-93.946565,47.694656
10,0.596,-0.788818,0.299316,0.479492,-8.587786,-92.977099,44.603053
10,0.602,-0.766846,0.306641,0.439453,-9.236641,-90.076336,41.977099
10,0.613,-0.767578,0.311523,0.398438,-1.610687,-87.122137,37.832061
10,0.618,-0.741943,0.318848,0.366943,1.664122,-83.572519,35.946565
10,0.623,-0.726074,0.326904,0.339355,4.832061,-77.984733,33.969466
10,0.629,-0.734863,0.337646,0.32666,7.633588,-69.160305,31.740458
10,0.635,-0.775391,0.361816,0.357422,15.549618,-63.175573,30.305344
10,0.641,-0.815674,0.388916,0.372559,22.206107,-59.198473,30.221374
10,0.646,-0.840332,0.413086,0.41748,28.229008,-53.030534,30.351145
10,0.652,-0.887939,0.411377,0.457275,34.51145,-47.633588,31.381679
10,0.662,-0.877197,0.338867,0.493896,39.137405,-44.832061,33.10687
10,0.668,-0.924805,0.321289,0.467529,39.061069,-43.679389,32.412214
10,0.673,-0.900879,0.287842,0.397949,39.022901,-41.328244,29.549618
11,1.291,-0.682373,0.36499,1.086914,-47.183206,131.419847,-87.320611
11,1.298,-0.835449,0.583252,1.39917,-28.038168,125.152672,-65.335878
11,1.303,-1.188721,-0.200439,1.67334,-16.366412,111.473282,-14.519084
11,1.308,-0.630859,1.695557,1.439209,34.328244,81.824427,-8.709924
11,1.319,-0.192139,1.27832,0.958008,64.328244,58.10687,4.435115
11,1.325,-0.070068,1.016602,0.704834,34.244275,62.870229,14.832061
11,1.33,-0.023682,0.900879,0.852295,6.541985,52.946565,19.480916
11,1.336,0.023193,0.998535,0.976318,-9.145038,46.580153,24.763359
11,1.342,0.119629,0.90332,0.951172,-0.175573,39.564885,33.396947
11,1.347,0.195312,0.658691,0.980469,20.015267,36.381679,45.0
11,1.353,0.237061,0.535156,0.906738,32.145038,36.435115,55.099237
11,1.364,0.306152,0.685791,0.772949,28.625954,28.381679,62.152672
11,1.369,0.287109,0.688721,0.799805,8.503817,22.40458,60.793893
11,1.375,0.256104,0.527588,0.862793,-12.969466,14.961832,59.770992
11,1.381,0.244385,0.427979,0.89917,-26.244275,6.458015,59.70229
11,1.386,0.247314,0.436279,0.920166,-21.946565,1.198473,61.59542
11,1.392,0.197021,0.447021,0.941406,-10.557252,-7.992366,64.389313
11,1.403,0.121826,0.403564,0.963135,14.10687,-23.290076,71.099237
11,1.408,0.078125,0.403564,0.953369,18.923664,-32.427481,73.290076
11,1.414,0.052002,0.439941,0.937256,21.0,-39.366412,74.854962
11,1.419,-0.006104,0.448486,0.913086,24.526718,-53.603053,75.755725
11,1.425,-0.034424,0.428711,0.869873,31.083969,-59.389313,76.618321
11,1.431,-0.06958,0.416748,0.835693,39.923664,-66.167939,77.778626
11,1.442,-0.16333,0.4021,0.795654,49.122137,-75.175573,79.435115
11,1.447,-0.191406,0.415283,0.811035,46.946565,-73.618321,81.267176
11,1.453,-0.252441,0.413818,0.817871,42.259542,-73.236641,83.343511
11,1.458,-0.318115,0.434814,0.821045,35.480916,-74.755725,86.160305
11,1.463,-0.354004,0.450195,0.790039,29.366412,-78.129771,89.503817
11,1.475,-0.418701,0.476318,0.73877,15.206107,-85.793893,99.167939
11,1.481,-0.433838,0.487549,0.682861,4.618321,-89.007634,104.480916
11,1.486,-0.445068,0.489014,0.629883,-7.816794,-91.854962,108.564885
11,1.492,-0.458008,0.497559,0.592529,-20.358779,-92.244275,112.183206
11,1.497,-0.491699,0.491211,0.571777,-31.328244,-95.0,115.763359
11,1.509,-0.532715,0.472168,0.517334,-39.984733,-92.312977,122.40458
11,1.514,-0.546143,0.474854,0.476318,-42.29771,-86.320611,126.167939
11,1.52,-0.571533,0.45874,0.444824,-43.587786,-83.946565,128.48855
11,1.525,-0.590576,0.42334,0.402344,-43.664122,-84.885496,130.076336
11,1.531,-0.578125,0.342529,0.338867,-45.267176,-79.076336,131.366412
11,1.541,-0.57959,0.13501,0.265869,-52.59542,-62.954198,125.961832
11,1.547,-0.601562,0.114502,0.241455,-54.061069,-57.015267,121.251908
11,1.553,-0.621826,0.092285,0.155518,-43.541985,-43.534351,115.717557
11,1.559,-0.690918,0.095459,0.186035,-41.748092,-37.419847,108.900763
11,1.564,-0.784668,0.109375,0.236328,-43.572519,-29.59542,101.282443
11,1.575,-0.983887,0.202148,0.236572,-44.48855,-30.603053,88.687023
11,1.58,-1.151367,0.26123,0.394775,-46.946565,-25.770992,87.335878
11,1.586,-1.269043,0.216309,0.470947,-54.259542,-23.160305,83.083969
11,1.591,-1.316406,0.242676,0.425537,-41.541985,-19.885496,84.381679
11,1.598,-1.418945,0.304932,0.424072,-38.519084,-15.160305,87.244275
11,1.608,-1.634521,0.384033,0.533936,-30.954198,-19.885496,90.206107
11,1.614,-1.653809,0.380371,0.547852,-30.160305,-22.656489,90.526718
11,1.619,-1.650879,0.405273,0.506348,-32.030534,-28.0,88.290076
11,1.625,-1.660156,0.412354,0.421387,-31.541985,-35.305344,85.549618
11,1.63,-1.592041,0.35376,0.368164,-29.687023,-49.251908,81.435115
11,1.642,-1.322266,0.067139,0.210449,-32.885496,-36.244275,69.465649
11,1.647,-1.174805,-0.113037,0.099854,-28.0,-30.022901,60.679389
11,1.653,-1.075684,-0.255127,0.068115,-20.244275,-24.671756,50.312977
11,1.658,-0.990967,-0.320312,0.063721,-10.641221,-18.473282,38.10687
11,1.664,-0.914062,-0.371582,0.019531,3.587786,-8.732824,24.015267
11,1.675,-0.976074,-0.291504,0.020752,26.427481,6.656489,-9.847328
11,1.681,-0.950195,-0.220215,0.012207,36.083969,5.137405,-28.343511
11,1.686,-0.946289,-0.212891,0.024658,37.206107,10.580153,-46.984733
11,1.692,-0.974121,-0.196533,0.044189,41.839695,8.015267,-64.389313
11,1.697,-0.939209,-0.151123,0.035156,42.740458,3.465649,-80.015267
11,1.703,-0.990479,0.04248,0.120605,46.473282,-9.267176,-89.312977
12,1.202,-0.578125,0.453125,1.084717,-16.076336,100.610687,-63.458015
12,1.207,-0.619141,0.0354,1.180176,-13.251908,90.763359,-29.992366
12,1.218,-0.343018,1.535889,1.102539,53.709924,75.465649,1.21374
12,1.225,-0.172363,1.294678,1.070801,67.083969,73.465649,7.022901
12,1.23,-0.144043,0.804199,1.11792,40.221374,69.80916,6.175573
12,1.236,0.072998,0.481689,1.11499,5.412214,56.625954,2.572519
12,1.241,0.194092,0.611816,0.992188,-13.290076,51.381679,2.59542
12,1.246,0.17334,0.71875,1.025146,-6.450382,49.328244,6.473282
12,1.252,0.199707,0.677734,1.056641,8.541985,46.519084,13.038168
12,1.263,0.212402,0.470703,1.090088,13.335878,20.152672,26.832061
12,1.269,0.200684,0.490234,1.07373,5.832061,2.48855,33.167939
12,1.275,0.208984,0.533447,1.029297,-0.854962,-17.496183,36.541985
12,1.28,0.189941,0.534668,1.033447,-3.030534,-35.236641,39.648855
12,1.285,0.165283,0.452148,0.987061,1.916031,-47.725191,41.396947
12,1.291,0.16748,0.359863,0.962158,11.236641,-56.038168,43.274809
12,1.296,0.154297,0.342529,0.921387,18.763359,-62.320611,43.122137
12,1.308,0.08374,0.326172,0.826172,33.748092,-60.10687,44.793893
12,1.313,0.026611,0.338867,0.803711,43.641221,-61.633588,45.984733
12,1.319,0.01001,0.364258,0.769287,42.610687,-38.580153,46.80916
12,1.324,-0.047607,0.380371,0.703369,60.618321,-22.519084,49.793893
12,1.33,-0.131592,0.424316,0.690918,77.045802,-17.89313,52.778626
12,1.335,-0.254883,0.516602,0.765869,73.656489,-10.015267,52.236641
12,1.346,-0.463867,0.666992,0.846436,73.534351,-22.908397,55.267176
12,1.352,-0.496582,0.698486,0.89917,47.549618,-14.030534,54.015267
12,1.358,-0.654297,0.686768,0.912354,40.969466,-28.656489,55.167939
12,1.363,-0.666016,0.639648,0.955811,21.770992,-40.870229,58.305344
12,1.369,-0.682129,0.589355,0.964355,-7.694656,-54.824427,56.984733
12,1.38,-0.696777,0.41626,0.955322,-40.458015,-63.541985,60.908397
12,1.385,-0.734619,0.328369,0.983398,-53.091603,-67.961832,65.358779
12,1.39,-0.708984,0.25415,1.003418,-61.396947,-76.038168,68.152672
12,1.397,-0.724609,0.203369,0.959229,-64.496183,-84.954198,70.557252
12,1.402,-0.69873,0.163086,0.903809,-62.908397,-95.679389,71.587786
12,1.413,-0.67627,0.160889,0.796631,-61.022901,-105.160305,70.847328
12,1.419,-0.661377,0.154053,0.721924,-67.21374,-108.992366,67.137405
12,1.424,-0.595215,0.125977,0.60791,-68.801527,-92.007634,63.503817
12,1.429,-0.619385,0.118896,0.571289,-49.351145,-85.763359,60.908397
12,1.436,-0.668213,0.091553,0.633789,-42.854962,-93.572519,56.89313
12,1.447,-0.662842,0.064209,0.567383,-25.045802,-115.534351,48.992366
12,1.452,-0.62915,0.057617,0.520996,-11.557252,-108.625954,46.358779
12,1.458,-0.66333,0.045654,0.520752,3.89313,-102.709924,43.648855
12,1.463,-0.690186,0.057373,0.523682,15.587786,-99.992366,40.664122
12,1.468,-0.708008,0.074219,0.523193,26.282443,-98.564885,38.122137
12,1.474,-0.713135,0.091553,0.510254,39.091603,-93.709924,35.984733
12,1.48,-0.711182,0.117188,0.490723,47.229008,-82.664122,34.0
12,1.491,-0.746338,0.123779,0.485107,49.038168,-75.496183,28.541985
12,1.497,-0.753906,0.109619,0.47998,43.755725,-79.381679,24.816794
12,1.502,-0.745117,0.087646,0.442139,37.977099,-82.19084,21.412214
12,1.507,-0.722656,0.067383,0.438232,31.320611,-83.442748,17.984733
12,1.513,-0.711182,0.061035,0.415771,24.687023,-85.946565,14.679389
12,1.518,-0.694092,0.067627,0.393311,17.51145,-85.145038,11.450382
12,1.525,-0.693848,0.095459,0.39502,10.519084,-87.396947,7.984733
12,1.535,-0.681152,0.125488,0.371582,-0.908397,-85.557252,1.709924
12,1.541,-0.686279,0.155029,0.373779,-3.48855,-80.29771,-1.022901
12,1.546,-0.67749,0.141846,0.397217,-3.625954,-68.290076,-2.625954
12,1.552,-0.717773,0.154053,0.439941,-4.183206,-63.961832,-3.709924
12,1.557,-0.71875,0.15918,0.451172,-1.045802,-60.290076,-3.931298
12,1.564,-0.722412,0.166504,0.44751,3.412214,-54.70229,-2.70229
12,1.569,-0.733887,0.182617,0.459229,7.824427,-49.29771,-1.496183
12,1.574,-0.755615,0.204834,0.469482,12.015267,-44.801527,0.221374
12,1.585,-0.771973,0.223633,0.474121,17.816794,-38.427481,4.465649
12,1.591,-0.785156,0.243896,0.471924,19.229008,-36.824427,6.732824
12,1.596,-0.772949,0.261963,0.449951,20.48855,-34.580153,9.366412
12,1.602,-0.77417,0.269043,0.446045,21.030534,-32.091603,11.480916
12,1.608,-0.771729,0.279053,0.433105,19.679389,-30.183206,13.244275
13,0.539,-0.283691,0.493164,1.063232,-82.19084,78.694656,-22.343511
13,0.544,-0.265869,0.471924,1.124268,-82.083969,67.160305,-30.206107
13,0.551,-0.246094,0.317627,1.097168,-95.099237,77.030534,-37.534351
13,0.556,-0.185547,0.282959,1.049805,-96.29771,66.870229,-44.969466
13,0.562,-0.171143,0.346924,1.266357,-104.832061,57.312977,-48.832061
13,0.573,-0.179443,0.362061,1.239502,-83.931298,35.59542,-68.145038
13,0.578,0.057129,0.44043,1.457031,-69.396947,26.618321,-62.763359
13,0.583,0.064941,0.590576,1.274414,-64.29771,0.244275,-46.022901
13,0.589,0.155273,0.653564,1.067139,-40.656489,-23.89313,-28.091603
13,0.595,0.276855,0.593018,0.909668,-15.816794,-34.427481,-9.557252
13,0.601,0.335205,0.650146,0.87085,-1.175573,-26.770992,-0.259542
13,0.606,0.174805,0.737305,1.005127,7.534351,-18.244275,5.007634
13,0.612,0.225342,0.806885,0.923584,15.251908,-4.465649,15.648855
13,0.617,0.142334,0.714844,0.972168,26.160305,-13.587786,26.946565
13,0.628,0.23584,0.516602,0.929688,42.351145,-21.251908,31.89313
13,0.633,0.29834,0.515869,0.835449,38.580153,-24.435115,32.748092
13,0.64,0.322754,0.536133,0.851318,41.244275,-22.366412,35.587786
13,0.645,0.254395,0.530029,0.896729,39.59542,-28.778626,34.732824
13,0.651,0.263916,0.510986,0.869141,37.229008,-34.030534,33.351145
13,0.656,0.274902,0.484863,0.814453,27.885496,-39.610687,31.587786
13,0.661,0.331787,0.528564,0.762207,20.091603,-38.931298,26.885496
13,0.667,0.369629,0.452637,0.705322,16.045802,-39.175573,25.725191
13,0.672,0.255859,0.495117,0.812012,8.923664,-41.717557,23.931298
13,0.684,0.255859,0.495117,0.812012,8.923664,-41.717557,23.931298
13,0.689,0.255859,0.495117,0.812012,8.923664,-41.717557,23.931298
13,0.694,0.255859,0.495117,0.812012,8.923664,-41.717557,23.931298
13,0.7,0.065918,0.489258,0.780518,-9.549618,-41.274809,41.740458
13,0.706,0.036865,0.508301,0.761719,-2.732824,-44.40458,46.984733
13,0.711,-0.053711,0.440674,0.894531,-0.770992,-52.236641,53.259542
13,0.717,-0.032227,0.407471,0.928467,4.748092,-45.10687,57.641221
13,0.723,-0.06543,0.36084,0.923584,5.366412,-39.129771,62.29771
13,0.729,-0.123047,0.384033,0.944336,5.022901,-47.961832,65.977099
13,0.739,-0.228516,0.320312,0.98291,12.282443,-49.564885,73.709924
13,0.745,-0.266846,0.299561,1.016602,19.564885,-51.274809,76.236641
13,0.75,-0.334961,0.251953,1.013672,19.778626,-60.206107,79.450382
13,0.756,-0.365723,0.247803,1.148682,26.343511,-69.061069,80.870229
13,0.761,-0.309326,0.244873,1.098145,26.923664,-77.022901,82.068702
13,0.773,-0.290283,0.163574,1.034424,29.312977,-66.183206,76.580153
13,0.778,-0.28125,0.128174,0.78418,24.045802,-68.068702,70.694656
13,0.784,-0.239014,0.155273,0.775146,19.473282,-61.572519,68.679389
13,0.789,-0.248291,0.147461,0.503906,18.175573,-43.557252,63.931298
13,0.795,-0.372559,0.179199,0.915283,20.389313,-55.290076,60.465649
13,0.8,-0.312988,0.212891,0.833496,24.0,-50.038168,57.709924
13,0.806,-0.337891,0.168945,0.609619,21.717557,-44.320611,55.717557
13,0.817,-0.354248,0.225586,0.710693,31.633588,-47.625954,49.221374
13,0.823,-0.56958,0.166748,0.985107,34.312977,-74.496183,44.587786
13,0.828,-0.436768,0.115967,0.817871,24.358779,-40.282443,42.412214
13,0.834,-0.550537,0.07251,0.78418,37.70229,-53.328244,45.763359
13,0.839,-0.588623,0.070312,1.02002,41.694656,-57.923664,41.946565
13,0.844,-0.532959,0.064697,0.868164,41.320611,-58.236641,45.251908
13,0.856,-0.576172,0.035156,0.84668,47.244275,-74.503817,43.664122
13,0.862,-0.567139,0.028809,0.908936,48.145038,-70.29771,40.152672
13,0.867,-0.549561,0.005371,0.774414,56.40458,-76.259542,34.618321
13,0.873,-0.489014,0.022949,0.754883,58.045802,-67.89313,31.480916
13,0.878,-0.482178,-0.003662,0.735352,55.580153,-67.839695,29.633588
13,0.883,-0.518066,0.002197,0.628418,56.167939,-61.480916,25.091603
13,0.889,-0.58667,-0.023438,0.817871,52.725191,-63.473282,23.717557
13,0.895,-0.549316,0.019043,0.67041,56.389313,-56.48855,21.290076
13,0.906,-0.524414,-0.040039,0.571045,46.030534,-39.954198,11.167939
13,0.912,-0.485596,0.012695,0.545654,46.885496,-41.290076,8.045802
13,0.917,-0.521729,0.053955,0.641846,41.442748,-35.061069,5.48855
13,0.922,-0.476807,0.01709,0.708252,37.450382,-23.648855,2.496183
13,0.928,-0.539307,0.009766,0.661377,36.572519,-19.137405,-2.610687
13,0.934,-0.585205,-0.005615,0.729492,27.923664,-26.450382,-7.381679
14,0.227,-0.415527,0.549316,1.106445,-76.244275,49.717557,-49.572519
14,0.232,-0.346191,0.51001,0.910645,-76.877863,48.862595,-47.877863
14,0.237,-0.327148,0.275146,1.141602,-70.267176,47.587786,-50.198473
14,0.244,-0.174805,0.245605,1.100342,-60.473282,33.984733,-52.435115
14,0.255,0.15332,0.577148,1.160645,-47.137405,7.229008,-38.824427
14,0.26,0.246094,0.811279,1.44751,-29.229008,-16.282443,-14.305344
14,0.266,0.37207,0.757568,1.097412,2.687023,-39.908397,0.496183
14,0.271,0.475342,0.849121,1.096436,18.496183,-38.328244,12.099237
14,0.276,0.341797,0.673828,0.987305,35.076336,-25.007634,23.053435
14,0.283,0.292236,0.618896,0.945801,35.0,-27.236641,23.992366
14,0.288,0.380127,0.745605,0.939453,44.969466,-26.564885,28.763359
14,0.294,0.326416,0.59668,0.998291,53.496183,-30.59542,34.419847
14,0.299,0.318604,0.446045,1.0271,55.900763,-37.946565,34.282443
14,0.31,0.326904,0.425537,0.897705,49.534351,-43.870229,31.931298
14,0.315,0.320557,0.418457,0.968994,47.305344,-46.847328,32.068702
14,0.321,0.277344,0.416016,0.923828,41.206107,-53.40458,29.343511
14,0.327,0.2854,0.385498,0.971191,37.10687,-55.480916,29.458015
14,0.333,0.265869,0.352539,0.92041,31.740458,-56.778626,28.145038
14,0.338,0.222412,0.353271,0.869873,25.183206,-62.992366,26.70229
14,0.344,0.234375,0.401611,0.82373,19.610687,-64.541985,25.854962
14,0.354,0.1521,0.361084,0.812256,11.038168,-69.541985,23.236641
14,0.36,0.094727,0.326416,0.799316,13.221374,-73.419847,23.427481
14,0.365,0.081299,0.293457,0.789795,5.328244,-76.366412,23.625954
14,0.372,0.159424,0.373047,0.572266,4.10687,-64.51145,25.885496
14,0.377,0.001953,0.288086,0.751221,-1.21374,-61.198473,28.633588
14,0.383,-0.079346,0.280273,0.89502,3.832061,-58.931298,31.587786
14,0.388,-0.072998,0.288086,0.762207,1.977099,-54.770992,36.496183
14,0.399,-0.204102,0.27417,0.916504,9.648855,-60.099237,44.664122
14,0.404,-0.223633,0.244629,0.874023,7.961832,-60.946565,47.473282
14,0.411,-0.28418,0.253174,0.968994,11.709924,-67.19084,50.007634
14,0.416,-0.189941,0.250977,0.853027,14.977099,-55.10687,51.89313
14,0.422,-0.227051,0.25415,1.024902,21.061069,-66.320611,55.229008
14,0.427,-0.260742,0.297852,1.125244,31.526718,-69.725191,56.10687
14,0.438,-0.239502,0.253662,0.967285,28.465649,-61.358779,52.030534
14,0.443,-0.289795,0.181885,0.851318,21.78626,-62.51145,49.251908
14,0.449,-0.375732,0.179199,0.937988,27.152672,-67.183206,48.343511
14,0.455,-0.351562,0.217529,0.859619,23.824427,-60.29771,47.236641
14,0.46,-0.381104,0.273438,0.903809,28.770992,-61.717557,47.381679
14,0.466,-0.444092,0.228027,0.924805,33.114504,-66.694656,42.045802
14,0.471,-0.431885,0.189453,0.723389,28.78626,-65.541985,37.618321
14,0.482,-0.482422,0.147705,0.646973,26.091603,-64.908397,34.259542
14,0.488,-0.438721,0.195801,0.938965,40.038168,-65.068702,34.412214
14,0.493,-0.465088,0.130127,0.958496,40.51145,-70.946565,28.458015
14,0.499,-0.429199,0.101807,0.815674,40.770992,-76.21374,23.175573
14,0.505,-0.389893,0.182861,0.95752,43.564885,-72.40458,20.725191
14,0.51,-0.312988,0.100586,0.648926,43.496183,-67.580153,17.427481
14,0.516,-0.374512,0.075928,0.636963,48.21374,-74.473282,12.801527
14,0.527,-0.41626,0.001221,0.803711,49.412214,-71.572519,7.259542
14,0.532,-0.476074,-0.037598,0.732666,49.076336,-58.343511,1.740458
14,0.537,-0.535156,-0.006104,0.833252,51.847328,-67.916031,-0.152672
14,0.544,-0.542725,0.017334,0.912598,54.19084,-55.091603,0.748092
14,0.549,-0.586182,-0.001953,0.864258,53.473282,-56.740458,0.442748
14,0.555,-0.61792,-0.004639,0.76123,52.259542,-61.412214,-4.083969
14,0.56,-0.540771,0.020264,0.728271,54.335878,-56.076336,-5.923664
14,0.566,-0.547607,0.007812,0.69165,54.916031,-57.816794,-7.816794
14,0.571,-0.534668,-0.022949,0.633545,55.091603,-51.824427,-10.412214
14,0.576,-0.549316,-0.053223,0.660889,48.022901,-44.381679,-12.152672
14,0.588,-0.634277,-0.012939,0.751709,37.671756,-35.931298,-17.923664
14,0.594,-0.622559,-0.04541,0.617432,33.984733,-31.419847,-19.70229
14,0.599,-0.692139,-0.044189,0.730225,31.80916,-37.007634,-22.740458
14,0.605,-0.578125,-0.093994,0.615479,23.572519,-29.015267,-26.366412
14,0.61,-0.518799,-0.11084,0.549316,17.938931,-21.801527,-32.068702
14,0.615,-0.4729,-0.102783,0.569336,11.557252,-18.015267,-38.671756
14,0.621,-0.463867,-0.105469,0.552734,7.145038,-14.473282,-46.083969
15,0.433,-0.35376,0.42041,1.108398,-80.763359,82.648855,-19.984733
15,0.438,-0.322021,0.317627,0.922852,-95.80916,87.931298,-24.763359
15,0.443,-0.345215,0.16748,0.994629,-90.022901,89.396947,-30.251908
15,0.449,-0.330322,0.201904,1.162354,-94.946565,95.465649,-37.549618
15,0.454,-0.401123,0.246094,0.983643,-101.496183,80.0,-52.839695
15,0.466,-0.252441,0.317383,1.029541,-89.290076,69.21374,-71.229008
15,0.472,-0.272705,0.313232,1.137695,-77.641221,58.244275,-77.671756
15,0.477,-0.201904,0.338379,1.139648,-72.564885,49.580153,-84.534351
15,0.482,-0.18042,0.437744,1.249756,-61.389313,39.221374,-86.206107
15,0.488,-0.12915,0.690186,1.389404,-54.328244,14.763359,-73.641221
15,0.493,0.152588,0.80542,1.557373,-35.221374,-8.847328,-44.938931
15,0.499,0.074951,0.809814,1.279297,-10.89313,-11.320611,-25.641221
15,0.51,0.343262,0.937988,0.91748,15.694656,-11.770992,-7.755725
15,0.516,0.31665,0.976074,0.863037,31.465649,-6.198473,15.167939
15,0.521,0.243164,0.709473,0.949219,40.648855,-10.480916,24.221374
15,0.527,0.311279,0.718506,0.920166,50.183206,-15.442748,31.549618
15,0.532,0.341797,0.774658,0.900635,56.290076,-18.015267,40.618321
15,0.538,0.333252,0.730225,0.937744,59.007634,-22.274809,46.40458
15,0.543,0.352051,0.69873,0.937744,60.381679,-28.274809,50.412214
15,0.549,0.341309,0.628906,0.937012,62.137405,-33.541985,50.557252
15,0.56,0.383789,0.473633,0.929932,41.801527,-44.740458,50.267176
15,0.566,0.349365,0.473389,0.874023,33.335878,-51.51145,46.816794
15,0.571,0.369385,0.480957,0.822021,23.687023,-55.748092,43.564885
15,0.577,0.32959,0.470215,0.789795,15.229008,-59.083969,39.839695
15,0.582,0.286865,0.446777,0.774902,10.312977,-64.183206,37.748092
15,0.587,0.277344,0.456543,0.740479,6.717557,-70.068702,37.343511
15,0.599,0.22876,0.471436,0.670166,-3.427481,-72.633588,42.099237
15,0.605,0.088379,0.453125,0.816162,-6.374046,-77.946565,45.465649
15,0.61,0.147949,0.469482,0.87793,2.80916,-62.610687,53.534351
15,0.616,0.052246,0.447021,0.886475,-6.358779,-64.78626,58.465649
15,0.621,-0.020508,0.475098,0.874023,0.282443,-66.80916,61.328244
15,0.626,-0.030273,0.462402,1.040039,13.091603,-74.587786,65.847328
15,0.638,-0.040283,0.319336,0.913086,16.381679,-62.503817,71.839695
15,0.644,-0.108154,0.253906,0.950195,11.961832,-59.541985,72.977099
15,0.649,-0.135742,0.253418,1.014404,6.816794,-59.396947,78.412214
15,0.655,-0.229492,0.26001,1.125977,14.633588,-65.229008,78.51145
15,0.66,-0.344727,0.257812,1.054443,23.572519,-76.961832,79.305344
15,0.671,-0.325684,0.19751,1.109863,36.274809,-76.847328,84.21374
15,0.677,-0.35083,0.189941,0.922119,37.603053,-73.610687,83.229008
15,0.683,-0.467773,0.170166,1.097412,37.969466,-95.969466,82.145038
15,0.688,-0.355469,0.192139,0.953613,42.290076,-91.496183,81.335878
15,0.694,-0.462402,0.166992,1.022949,39.145038,-95.732824,76.374046
15,0.699,-0.357666,0.116699,0.674561,34.236641,-79.801527,69.778626
15,0.71,-0.54248,0.114014,1.112061,40.992366,-105.51145,60.740458
15,0.715,-0.391113,0.14502,0.937012,38.618321,-93.641221,54.496183
15,0.722,-0.419189,0.092285,0.768799,26.877863,-82.946565,45.557252
15,0.727,-0.454346,0.038086,0.706543,37.099237,-83.89313,39.709924
15,0.733,-0.561035,0.081787,0.999512,34.89313,-105.725191,38.465649
15,0.738,-0.534424,0.039795,0.708252,34.70229,-110.641221,31.641221
15,0.749,-0.450928,0.111572,0.873047,37.80916,-95.419847,28.282443
15,0.754,-0.567627,0.104736,0.923096,40.427481,-102.465649,30.374046
15,0.761,-0.643555,0.11792,0.976318,46.618321,-104.572519,27.572519
15,0.766,-0.547607,0.124023,0.817383,52.053435,-92.442748,27.175573
15,0.772,-0.600586,0.112549,0.932129,56.396947,-92.870229,29.862595
15,0.782,-0.731934,0.083496,1.063232,59.854962,-90.633588,34.977099
15,0.788,-0.669678,0.068115,0.77417,61.10687,-83.236641,35.923664
15,0.793,-0.686523,0.121582,0.8125,63.022901,-76.572519,36.396947
15,0.799,-0.710693,0.066895,0.802734,60.687023,-76.984733,38.679389
15,0.805,-0.733398,-0.008301,0.756592,60.442748,-74.351145,35.259542
15,0.81,-0.685547,-0.061279,0.74707,60.755725,-70.374046,30.557252
15,0.821,-0.683105,-0.17627,0.650391,46.068702,-67.854962,17.312977
15,0.827,-0.708496,-0.240479,0.606201,36.083969,-61.633588,6.900763
15,0.832,-0.698975,-0.284912,0.583008,25.114504,-56.290076,-4.992366
15,0.838,-0.633545,-0.298584,0.523926,13.755725,-39.847328,-18.015267
16,0.257,-0.39209,0.403564,1.237793,-56.274809,76.10687,-33.938931
16,0.262,-0.446777,0.410156,1.099854,-58.053435,65.389313,-36.343511
16,0.268,-0.363525,0.407227,1.025391,-58.793893,75.145038,-38.183206
16,0.273,-0.345947,0.346924,1.155273,-57.045802,71.549618,-42.839695
16,0.279,-0.312988,0.356689,1.001465,-62.480916,74.778626,-45.496183
16,0.29,-0.078125,0.487793,1.195068,-59.977099,57.259542,-47.748092
16,0.296,0.119141,0.620361,1.568848,-52.114504,27.572519,-37.007634
16,0.301,-0.030273,0.54248,1.268555,-36.465649,16.152672,-38.335878
16,0.307,0.016113,0.459473,1.032471,-25.78626,9.175573,-37.572519
16,0.312,0.205811,0.547363,1.055176,-18.19084,7.175573,-36.419847
16,0.318,0.282471,0.701416,1.000732,-10.061069,8.877863,-30.618321
16,0.323,0.199707,0.626465,0.929688,-6.083969,6.129771,-25.51145
16,0.328,0.208252,0.55957,0.89624,-6.259542,2.343511,-19.687023
16,0.335,0.275635,0.586182,0.987549,-5.221374,7.503817,-15.732824
16,0.34,0.19873,0.591797,0.991211,-0.152672,1.984733,-13.854962
16,0.346,0.236084,0.606201,1.000732,5.412214,-0.748092,-8.832061
16,0.357,0.229248,0.594238,1.036621,11.633588,-15.534351,-1.564885
16,0.362,0.270508,0.579834,1.019287,14.221374,-17.045802,0.885496
16,0.367,0.284912,0.575439,0.882324,13.274809,-26.145038,2.854962
16,0.373,0.271973,0.574219,0.914795,14.358779,-29.984733,5.618321
16,0.379,0.269287,0.575439,0.875732,11.80916,-34.89313,7.358779
16,0.385,0.277344,0.588379,0.829102,11.007634,-37.541985,9.374046
16,0.39,0.249756,0.590332,0.826172,11.625954,-40.305344,12.061069
16,0.396,0.237793,0.569824,0.824707,11.938931,-42.290076,14.549618
16,0.401,0.235596,0.555908,0.788818,13.343511,-44.534351,17.816794
16,0.412,0.182129,0.572754,0.825439,14.839695,-55.610687,25.145038
16,0.418,0.119629,0.54126,0.906982,15.839695,-59.816794,30.160305
16,0.424,0.093994,0.533447,0.814941,17.282443,-59.358779,35.129771
16,0.429,0.061523,0.51416,0.666748,15.251908,-64.19084,39.541985
16,0.435,0.037842,0.512451,0.895508,24.0,-63.603053,45.396947
16,0.44,0.032471,0.474609,0.745117,18.977099,-63.839695,48.083969
16,0.445,0.020752,0.466797,0.743652,23.412214,-61.89313,50.977099
16,0.456,-0.013428,0.437012,0.763916,26.618321,-62.10687,55.854962
16,0.463,-0.15625,0.373779,0.967529,27.381679,-72.603053,59.473282
16,0.468,-0.192871,0.391602,1.163086,32.244275,-70.519084,63.900763
16,0.474,-0.189453,0.385986,0.967773,29.053435,-66.519084,66.526718
16,0.479,-0.250732,0.335693,0.946533,31.129771,-76.839695,69.671756
16,0.49,-0.294922,0.315918,0.965088,33.221374,-86.358779,74.885496
16,0.495,-0.358887,0.261719,0.888672,31.305344,-92.335878,75.335878
16,0.501,-0.279053,0.265869,0.858154,39.366412,-79.091603,75.900763
16,0.507,-0.423096,0.224609,0.901123,37.770992,-88.549618,76.679389
16,0.513,-0.410645,0.184814,0.877686,37.045802,-89.954198,77.007634
16,0.518,-0.439941,0.224365,0.916504,34.885496,-93.129771,78.465649
16,0.529,-0.508057,0.170166,1.037842,33.694656,-99.877863,77.900763
16,0.534,-0.400391,0.190186,0.843994,37.587786,-85.022901,74.992366
16,0.54,-0.483154,0.102539,0.623535,28.129771,-88.770992,69.435115
16,0.546,-0.457275,0.133789,0.755371,34.580153,-84.671756,66.229008
16,0.552,-0.53125,0.10498,0.870605,34.458015,-86.59542,62.824427
16,0.562,-0.600586,0.09668,0.738281,35.221374,-86.290076,60.946565
16,0.568,-0.576172,0.138916,0.768311,33.954198,-88.450382,60.061069
16,0.573,-0.574219,0.13208,0.700928,36.259542,-90.977099,61.732824
16,0.579,-0.688477,0.116211,0.97998,42.374046,-113.885496,61.045802
16,0.584,-0.562012,0.175049,0.88916,43.694656,-102.091603,61.748092
16,0.596,-0.660889,0.082031,0.842285,48.312977,-95.931298,58.29771
16,0.601,-0.549561,0.078857,0.698486,50.259542,-86.061069,58.580153
16,0.607,-0.590576,0.071533,0.778076,51.320611,-78.076336,59.954198
16,0.612,-0.675537,0.064209,0.830811,51.931298,-90.366412,57.824427
16,0.618,-0.625488,0.018311,0.701416,49.862595,-80.229008,52.0
16,0.628,-0.571289,-0.116455,0.772461,48.977099,-71.687023,42.48855
16,0.635,-0.591309,-0.138916,0.760742,45.503817,-70.305344,33.992366
16,0.64,-0.563965,-0.154785,0.762451,38.954198,-69.358779,24.992366
16,0.646,-0.552734,-0.162842,0.747314,34.961832,-65.473282,17.167939
16,0.651,-0.534668,-0.151367,0.750732,34.984733,-67.251908,8.442748
16,0.657,-0.536865,-0.171631,0.691162,31.832061,-65.229008,-0.015267
17,0.296,0.178955,0.30249,1.152588,-38.580153,-9.664122,-4.877863
17,0.301,0.188477,0.276855,1.196533,-27.679389,-5.549618,-0.381679
17,0.307,0.215332,0.24585,1.208008,-17.839695,-2.748092,3.229008
17,0.313,0.25,0.243896,1.19165,-9.022901,-2.320611,6.282443
17,0.319,0.245605,0.23877,1.16333,-2.007634,-5.549618,8.564885
17,0.329,0.270264,0.237549,1.137939,3.320611,-8.694656,10.931298
17,0.335,0.268066,0.22998,1.109131,6.748092,-12.931298,11.832061
17,0.34,0.250488,0.215332,1.122803,9.038168,-15.572519,12.496183
17,0.346,0.225098,0.210205,1.131348,9.694656,-16.251908,13.259542
17,0.352,0.207764,0.2146,1.137695,11.526718,-18.503817,14.335878
17,0.358,0.180908,0.223633,1.154297,12.442748,-21.740458,15.793893
17,0.363,0.151123,0.242676,1.171143,13.465649,-25.648855,16.954198
17,0.369,0.120361,0.250977,1.187744,13.763359,-29.954198,18.763359
17,0.374,0.084229,0.258789,1.211914,13.122137,-33.80916,20.603053
17,0.379,0.061035,0.263672,1.211914,12.038168,-37.458015,22.022901
17,0.385,0.038818,0.259521,1.182861,11.305344,-41.633588,23.610687
17,0.39,0.014893,0.253418,1.166504,10.687023,-46.305344,25.015267
17,0.402,-0.038086,0.243896,1.114746,8.870229,-55.229008,27.435115
17,0.407,-0.067383,0.234619,1.098877,8.671756,-59.503817,28.59542
17,0.413,-0.08374,0.231689,1.057861,7.732824,-62.671756,29.129771
17,0.418,-0.104248,0.22168,1.023682,7.755725,-63.885496,29.900763
17,0.424,-0.125732,0.217773,1.000488,7.671756,-64.610687,30.312977
17,0.429,-0.140869,0.207031,0.971436,7.534351,-64.832061,30.938931
17,0.435,-0.157471,0.209961,0.948975,6.977099,-64.351145,31.29771
17,0.446,-0.189453,0.188965,0.881836,5.671756,-63.305344,31.374046
17,0.452,-0.197998,0.184082,0.838867,4.961832,-62.061069,31.625954
17,0.457,-0.199951,0.174072,0.810059,4.580153,-59.763359,31.419847
17,0.463,-0.215576,0.170166,0.778076,4.633588,-58.038168,31.282443
17,0.468,-0.22583,0.166016,0.757812,4.351145,-54.51145,30.80916
17,0.474,-0.227539,0.160889,0.711426,3.977099,-50.839695,30.038168
17,0.48,-0.228027,0.159424,0.677979,3.732824,-46.496183,29.122137
17,0.491,-0.242432,0.156982,0.674561,6.061069,-36.312977,27.068702
17,0.496,-0.273438,0.162109,0.690674,8.396947,-30.763359,25.984733
17,0.502,-0.299561,0.175537,0.709473,11.496183,-26.030534,25.78626
17,0.507,-0.322998,0.182129,0.717285,14.732824,-21.885496,25.977099
17,0.513,-0.33374,0.193115,0.727051,18.244275,-19.175573,26.48855
17,0.518,-0.354492,0.197754,0.741211,20.992366,-16.938931,26.503817
17,0.524,-0.370117,0.203857,0.733154,23.450382,-15.992366,26.725191
17,0.535,-0.388672,0.212646,0.717529,29.351145,-16.328244,27.465649
17,0.541,-0.371582,0.219727,0.722412,29.618321,-15.152672,27.839695
17,0.546,-0.383545,0.230957,0.725342,30.282443,-14.328244,28.419847
17,0.552,-0.40918,0.232422,0.740479,29.007634,-16.358779,28.465649
17,0.557,-0.424561,0.243408,0.781738,25.183206,-18.259542,28.167939
17,0.562,-0.436523,0.240967,0.796387,19.984733,-21.977099,27.648855
17,0.569,-0.423828,0.236084,0.805664,15.496183,-23.022901,27.366412
17,0.574,-0.421875,0.218018,0.838623,10.847328,-25.419847,26.152672
17,0.58,-0.42041,0.185303,0.854736,5.007634,-26.931298,24.824427
17,0.59,-0.4104,0.130859,0.824951,-2.519084,-29.412214,21.923664
17,0.596,-0.398926,0.103027,0.816162,-3.259542,-27.145038,20.709924
17,0.601,-0.390137,0.079346,0.793945,-4.045802,-27.236641,18.900763
17,0.608,-0.392334,0.061035,0.812744,-1.282443,-24.732824,17.061069
17,0.613,-0.386719,0.052734,0.801025,-0.732824,-24.671756,15.152672
17,0.619,-0.401367,0.053467,0.778564,0.740458,-23.450382,13.389313
17,0.624,-0.395264,0.061768,0.780273,4.564885,-23.648855,11.885496
17,0.63,-0.383545,0.071289,0.763428,8.450382,-23.091603,10.206107
17,0.635,-0.364014,0.091797,0.746338,10.656489,-20.969466,9.076336
17,0.64,-0.37085,0.108154,0.73584,13.167939,-19.21374,8.267176
17,0.652,-0.365723,0.131592,0.687744,17.0,-13.984733,7.618321
17,0.658,-0.360596,0.152588,0.67749,18.061069,-12.381679,7.70229
17,0.663,-0.360596,0.165527,0.665039,18.328244,-9.656489,7.671756
17,0.668,-0.365723,0.16748,0.659424,18.351145,-8.419847,8.091603
17,0.674,-0.362061,0.175049,0.647217,18.412214,-5.862595,8.80916
17,0.679,-0.373779,0.186523,0.648926,18.541985,-4.763359,9.70229
17,0.685,-0.375488,0.189941,0.662354,18.236641,-2.572519,10.977099
18,0.201,0.032959,0.284424,1.171387,-63.312977,-2.656489,-23.961832
18,0.206,0.131348,0.33374,1.233887,-67.755725,-14.80916,-21.977099
18,0.211,0.2146,0.388184,1.226562,-67.938931,-26.885496,-20.198473
18,0.218,0.283447,0.412354,1.204346,-67.320611,-35.374046,-18.931298
18,0.223,0.368896,0.442871,1.214111,-64.221374,-41.061069,-17.061069
18,0.229,0.451904,0.414307,1.245605,-57.007634,-46.015267,-13.419847
18,0.239,0.499756,0.353516,1.308594,-42.89313,-39.053435,-3.427481
18,0.245,0.503906,0.335205,1.330566,-33.732824,-38.633588,1.145038
18,0.25,0.484863,0.302246,1.392578,-22.053435,-39.198473,4.70229
18,0.256,0.461914,0.286377,1.395508,-12.114504,-39.801527,7.664122
18,0.262,0.462891,0.263184,1.35376,-1.824427,-42.870229,10.030534
18,0.268,0.467529,0.251953,1.337402,5.572519,-47.748092,11.320611
18,0.273,0.312012,0.153076,1.298096,19.129771,-72.122137,15.114504
18,0.278,0.449707,0.19873,1.259521,14.992366,-59.633588,14.152672
18,0.284,0.368896,0.208496,1.162109,14.10687,-62.236641,14.564885
18,0.289,0.375732,0.192139,1.142578,13.229008,-56.870229,14.435115
18,0.295,0.342529,0.177734,1.083252,13.931298,-53.70229,14.725191
18,0.307,0.277588,0.152588,0.992188,16.236641,-51.572519,15.099237
18,0.312,0.229248,0.140137,0.990479,17.778626,-53.282443,14.938931
18,0.317,0.174072,0.160156,1.023193,19.244275,-52.816794,14.900763
18,0.323,0.101562,0.195312,1.060791,21.152672,-54.580153,15.198473
18,0.328,0.012939,0.217773,1.158936,19.160305,-57.450382,15.618321
18,0.334,0.011475,0.293457,1.270508,12.053435,-48.564885,13.572519
18,0.339,-0.239502,0.297363,1.180176,29.732824,-75.48855,19.763359
18,0.346,-0.139404,0.362305,1.174072,14.343511,-93.671756,20.984733
18,0.356,-0.220703,0.235352,1.145508,11.648855,-74.229008,24.969466
18,0.362,-0.212402,0.198975,1.147217,11.824427,-86.206107,27.10687
18,0.367,-0.206055,0.175537,1.049072,15.633588,-90.541985,26.183206
18,0.373,-0.197754,0.147461,0.998779,17.129771,-89.51145,25.541985
18,0.378,-0.218262,0.097168,0.960938,13.625954,-89.572519,23.877863
18,0.384,-0.234131,0.044678,0.934326,9.374046,-83.534351,22.030534
18,0.395,-0.266846,0.041504,0.929688,13.885496,-80.458015,17.694656
18,0.401,-0.259521,-0.013672,0.885742,16.908397,-76.381679,15.351145
18,0.406,-0.307617,-0.012451,0.838867,16.48855,-71.022901,12.938931
18,0.412,-0.298828,-0.023438,0.837402,18.328244,-71.091603,10.526718
18,0.417,-0.327148,-0.018311,0.80957,19.053435,-69.603053,7.816794
18,0.423,-0.329102,-0.02124,0.786377,20.465649,-67.442748,5.259542
18,0.428,-0.320312,0.00415,0.741943,21.519084,-63.954198,2.534351
18,0.434,-0.624756,-0.113037,0.88916,39.061069,-91.534351,8.282443
18,0.44,-0.403076,-0.014893,0.649658,24.580153,-59.923664,1.839695
18,0.451,-0.24707,0.04834,0.703125,29.992366,-31.236641,-4.412214
18,0.456,-0.338867,0.030273,0.70752,36.198473,-48.0,-4.847328
18,0.462,-0.37915,0.077393,0.803467,27.664122,-39.541985,-4.435115
18,0.467,-0.462402,0.136475,0.992676,26.244275,-39.030534,-5.480916
18,0.473,-0.537598,0.19751,1.114014,26.80916,-34.473282,-3.503817
18,0.479,-0.563232,0.265869,1.187012,30.167939,-42.549618,0.648855
18,0.484,-0.531738,0.291748,1.215576,31.916031,-40.70229,3.549618
18,0.49,-0.649414,0.255127,1.189697,32.938931,-54.877863,8.351145
18,0.495,-0.427734,0.301514,0.986328,24.473282,-53.763359,9.099237
18,0.5,-0.377197,0.28125,0.86792,21.717557,-58.870229,11.083969
18,0.506,-0.324951,0.229248,0.737549,16.885496,-63.0,13.396947
18,0.518,-0.277588,0.163574,0.578369,4.351145,-52.603053,15.335878
18,0.523,-0.380127,0.263916,0.700439,-3.015267,-56.870229,15.908397
18,0.529,-1.585449,-0.70752,1.555176,-32.259542,41.053435,12.763359
18,0.534,-0.473145,0.083008,0.722168,18.015267,-60.923664,14.045802
18,0.539,-0.106201,0.16626,0.711182,22.038168,-15.145038,13.442748
18,0.545,-0.292236,0.208252,0.594238,-1.038168,-30.145038,15.816794
18,0.55,-0.261475,0.200195,0.609375,-12.351145,-18.633588,17.068702
18,0.556,-0.245605,0.219482,0.564941,-6.473282,-21.10687,17.748092
18,0.568,-0.169922,0.170166,0.483643,20.236641,-8.862595,18.557252
18,0.573,-0.143555,0.205322,0.384521,9.664122,12.755725,19.465649
18,0.578,-0.10498,0.191895,0.349365,-4.236641,11.412214,18.793893
18,0.584,-0.074219,0.15625,0.314453,4.274809,19.19084,18.832061
18,0.589,-0.071289,0.143066,0.356934,14.732824,23.923664,17.824427
19,0.444,-0.084961,0.333252,1.157959,-91.770992,11.89313,-23.427481
19,0.45,0.036621,0.426025,1.294434,-97.618321,7.480916,-22.396947
19,0.455,0.088379,0.480713,1.345703,-99.832061,-13.40458,-18.900763
19,0.466,0.420166,0.567383,1.225342,-93.923664,-19.70229,-15.80916
19,0.472,0.493164,0.558105,1.239014,-91.717557,-27.007634,-12.0
19,0.477,0.535889,0.480713,1.348389,-79.076336,-34.435115,-5.0
19,0.483,0.444336,0.428223,1.479004,-58.564885,-29.061069,4.870229
19,0.488,0.41748,0.364502,1.600586,-35.175573,-29.717557,13.274809
19,0.494,0.537598,0.284668,1.62915,-21.870229,-23.274809,18.274809
19,0.5,0.608398,0.231689,1.491455,-10.351145,-25.618321,20.862595
19,0.511,0.681885,0.141846,1.219238,6.709924,-45.351145,20.099237
19,0.516,0.674316,0.081787,1.181641,15.885496,-53.748092,18.40458
19,0.521,0.643555,0.043701,1.091553,21.48855,-58.755725,16.022901
19,0.527,0.604004,-0.013916,1.091553,23.374046,-52.503817,13.427481
19,0.533,0.5625,-0.032471,1.12085,22.793893,-45.938931,10.877863
19,0.539,0.519287,-0.021484,1.104492,28.465649,-47.282443,9.206107
19,0.544,0.47168,-0.012695,1.0979,35.366412,-52.770992,7.687023
19,0.55,0.432373,-0.002686,1.11377,34.664122,-54.068702,5.312977
19,0.56,0.287354,0.043701,1.157959,26.549618,-59.847328,1.061069
19,0.566,0.197021,0.048828,1.223877,24.10687,-62.770992,-0.114504
19,0.571,0.183594,0.074463,1.248047,22.541985,-63.145038,-1.961832
19,0.578,0.094971,0.082275,1.238037,22.114504,-71.229008,-1.89313
19,0.583,0.053467,0.068359,1.245361,20.549618,-76.19084,-1.816794
19,0.589,0.03125,0.083008,1.154053,24.458015,-84.503817,-1.343511
19,0.594,-0.006104,0.081787,1.132812,25.503817,-88.122137,-1.48855
19,0.599,-0.040527,0.096924,1.098389,26.343511,-94.366412,-0.916031
19,0.61,-0.106201,0.117432,1.024902,26.038168,-94.870229,1.351145
19,0.616,-0.11499,0.132812,0.988281,24.19084,-93.534351,2.610687
19,0.622,-0.129883,0.149414,0.929443,21.083969,-88.641221,3.961832
19,0.628,-0.1604,0.148193,0.878662,19.450382,-87.526718,6.007634
19,0.633,-0.188232,0.128174,0.809814,19.267176,-85.832061,7.870229
19,0.638,-0.186523,0.130127,0.752441,17.610687,-78.969466,9.038168
19,0.644,-0.182861,0.116211,0.679443,18.091603,-75.0,9.885496
19,0.649,-0.172852,0.10083,0.589111,17.473282,-69.251908,10.847328
19,0.661,-0.202881,0.062256,0.487061,21.473282,-54.992366,12.305344
19,0.667,-0.178955,0.101074,0.449219,23.587786,-43.946565,11.755725
19,0.672,-0.180176,0.07959,0.427002,25.908397,-32.419847,12.48855
19,0.677,-0.209717,0.114746,0.414551,24.908397,-19.328244,11.885496
19,0.683,-0.234619,0.10791,0.455811,26.80916,-11.290076,12.007634
19,0.688,-0.289062,0.094727,0.554688,24.717557,-9.152672,12.0
19,0.694,-0.320312,0.124268,0.71582,39.099237,-3.114504,13.824427
19,0.699,-0.295898,0.16748,0.659912,36.656489,-12.931298,12.717557
19,0.706,-0.362305,0.141846,0.73584,19.580153,6.480916,11.78626
19,0.716,-0.439453,0.029053,1.091797,-1.045802,21.938931,9.541985
19,0.722,-0.458984,0.155762,0.944824,6.519084,11.778626,12.473282
19,0.727,-0.522217,0.116943,0.979736,8.015267,-46.076336,22.419847
19,0.733,-0.514893,0.0979,0.979004,10.664122,-25.274809,21.053435
19,0.738,-0.527588,0.051758,0.983154,12.022901,-37.351145,22.977099
19,0.744,-0.526123,0.059082,1.010986,11.687023,-43.755725,19.114504
19,0.75,-1.472168,-0.001953,1.999939,-95.198473,169.549618,-4.167939
19,0.755,-0.850586,-0.630615,1.72168,22.664122,-32.679389,15.068702
19,0.766,-0.464111,0.088379,0.906738,4.954198,-35.099237,8.648855
19,0.772,-0.538086,0.286865,0.803467,-17.740458,-23.465649,7.587786
19,0.777,-0.514648,0.015625,0.92627,-21.40458,-26.732824,5.618321
19,0.783,-0.546143,0.057617,0.829102,-20.580153,-22.755725,3.167939
19,0.789,-0.52002,-0.08374,0.802979,18.396947,-21.961832,2.641221
19,0.794,-0.60083,-0.024658,0.74292,5.137405,-29.572519,-0.412214
19,0.8,-0.550781,0.023193,0.660156,0.78626,-20.709924,-2.610687
19,0.805,-0.57251,0.005615,0.608398,7.229008,-23.030534,-4.48855
19,0.811,-0.554932,0.012695,0.549072,21.038168,-21.503817,-6.374046
19,0.816,-0.465332,0.130371,0.459473,30.931298,-23.671756,-8.396947
19,0.821,-0.576904,0.057861,0.475586,30.877863,-14.389313,-7.977099
19,0.827,-0.578613,0.126953,0.448486,20.59542,-12.412214,-8.938931
19,0.839,-0.597168,0.206543,0.445801,22.496183,-0.938931,-8.389313
20,1.209,-0.148438,0.663574,1.09375,-25.305344,29.694656,-16.450382
20,1.22,-0.339355,0.754395,1.172852,-68.473282,42.923664,-29.160305
20,1.231,-0.186035,0.455078,1.068359,-77.671756,43.938931,-32.053435
20,1.248,-0.046387,0.623047,1.115967,-44.29771,40.038168,-21.633588
20,1.259,-0.14624,0.597168,1.308838,-11.366412,30.198473,-0.381679
20,1.27,-0.103271,0.571289,1.351807,18.160305,13.229008,20.267176
20,1.281,0.076416,0.52417,1.225098,38.679389,-7.152672,32.236641
20,1.298,0.133545,0.339355,1.107422,43.274809,-30.267176,40.908397
20,1.309,0.071289,0.314209,1.079346,43.89313,-30.381679,47.496183
20,1.32,-0.099609,0.325195,1.170654,40.19084,-39.656489,55.938931
20,1.332,-0.221436,0.351562,1.231445,27.847328,-42.755725,62.709924
20,1.348,-0.321045,0.288574,1.108398,0.793893,-65.045802,67.030534
20,1.359,-0.308594,0.231445,1.003418,-12.335878,-78.717557,67.091603
20,1.376,-0.386475,0.246826,0.979736,-16.763359,-79.366412,70.091603
20,1.387,-0.468018,0.337646,0.974365,-19.847328,-80.603053,75.40458
20,1.403,-0.442139,0.363037,0.826904,-23.183206,-80.923664,87.19084
20,1.415,-0.446289,0.296387,0.781006,-27.549618,-79.068702,94.503817
20,1.431,-0.481445,0.211426,0.786377,-28.419847,-71.801527,102.396947
20,1.442,-0.501221,0.165527,0.859131,-26.259542,-68.839695,103.557252
20,1.46,-0.503418,0.089111,0.915771,-22.083969,-70.442748,99.862595
20,1.47,-0.476807,0.046631,0.912842,-21.580153,-76.206107,93.290076
20,1.487,-0.479004,-0.010986,0.915527,-17.21374,-83.152672,78.267176
20,1.499,-0.519043,-0.019775,0.909668,-11.175573,-86.503817,67.221374
20,1.515,-0.560059,-0.03125,0.918213,3.236641,-93.343511,50.725191
20,1.526,-0.533447,-0.026855,0.856934,10.625954,-100.328244,39.80916
20,1.537,-0.500488,-0.025879,0.779053,18.603053,-105.068702,29.160305
20,1.554,-0.501221,0.02124,0.710449,28.854962,-99.885496,16.015267
20,1.565,-0.523682,0.062012,0.714111,33.931298,-93.709924,10.70229
20,1.581,-0.496094,0.124756,0.67334,33.908397,-90.091603,7.312977
20,1.593,-0.440674,0.157959,0.59668,31.503817,-86.40458,6.770992
20,1.604,-0.44165,0.197754,0.574219,26.541985,-77.816794,6.801527
20,1.615,-0.470459,0.222412,0.591553,20.099237,-68.267176,9.572519
20,1.632,-0.514404,0.261963,0.647217,13.068702,-57.442748,17.740458
20,1.643,-0.534424,0.254395,0.67334,6.10687,-57.312977,24.061069
20,1.654,-0.427979,0.205078,0.60376,-1.091603,-58.557252,28.458015
20,1.671,-0.313232,0.109863,0.499512,-8.022901,-45.19084,29.534351
20,1.682,-0.322021,0.08667,0.549805,-8.183206,-32.778626,27.160305
20,1.692,-0.395996,0.094482,0.645264,-4.89313,-25.221374,25.137405
20,1.709,-0.410645,0.086914,0.720215,-8.916031,-25.366412,18.389313
20,1.721,-0.335693,0.023438,0.641602,-12.763359,-24.763359,11.206107
20,1.731,-0.320557,0.002686,0.59375,-15.48855,-22.671756,3.351145
20,1.742,-0.343262,0.006104,0.594238,-14.587786,-16.244275,-3.167939
20,1.76,-0.405518,-0.007812,0.62207,-17.183206,-6.587786,-13.931298
20,1.77,-0.367676,-0.043213,0.571533,-25.29771,-2.450382,-24.923664
20,1.781,-0.312744,-0.079102,0.510986,-33.19084,7.709924,-38.10687
20,1.799,-0.289551,-0.063232,0.480469,-48.167939,22.022901,-58.374046
20,1.809,-0.303955,-0.033203,0.56665,-51.198473,31.954198,-66.526718
20,1.82,-0.260986,0.02417,0.571533,-48.610687,39.312977,-67.381679
20,1.831,-0.723633,-0.205322,0.48877,-6.679389,94.931298,-64.610687
20,1.848,0.522461,0.519775,0.692139,-38.091603,123.167939,-107.419847
20,1.859,0.299072,0.711426,0.713867,22.290076,162.152672,-43.030534
20,1.876,-0.772461,-0.137451,0.89917,-9.832061,217.984733,-16.427481
20,1.887,-0.666504,-0.746338,0.984375,-3.374046,171.89313,-29.80916
20,1.898,-0.729492,-0.345215,1.036377,9.351145,159.40458,-42.923664
20,1.915,-0.635986,0.584229,0.860107,48.70229,150.412214,-28.572519
20,1.926,-0.533936,0.833008,0.702393,65.40458,151.29771,-10.854962
20,1.937,-0.625732,0.666504,0.831787,38.832061,135.725191,-3.89313
20,1.953,-0.781006,0.290283,0.876221,-7.587786,132.984733,-8.900763
20,1.964,-0.76709,0.173096,0.871582,-11.70229,128.435115,-11.335878
20,1.976,-0.716064,0.213379,0.827881,-13.923664,124.419847,-16.633588
20,1.992,-0.677246,0.165283,0.854736,-18.603053,115.427481,-23.267176
20,2.003,-0.767334,0.114258,0.89917,-35.664122,103.847328,-27.839695
20,2.015,-0.767334,0.114258,0.89917,-35.664122,103.847328,-27.839695
20,2.026,-0.767334,0.114258,0.89917,-35.664122,103.847328,-27.839695
21,0.449,-0.325928,0.458984,1.153809,-34.229008,82.801527,-11.931298
21,0.455,-0.341309,0.471924,1.371338,-47.167939,85.641221,-11.259542
21,0.46,-0.371338,0.654297,1.466309,-62.732824,73.755725,-10.061069
21,0.471,-0.478516,0.544189,1.601318,-71.519084,35.961832,6.282443
21,0.477,-0.193115,0.503418,1.522461,-73.770992,21.832061,12.877863
21,0.483,0.036621,0.416748,1.337646,-70.816794,10.099237,17.992366
21,0.488,0.146484,0.299316,1.233398,-62.969466,-6.816794,23.091603
21,0.494,0.198242,0.229492,1.203613,-54.51145,-22.977099,26.21374
21,0.499,0.236572,0.193115,1.169922,-41.076336,-31.419847,27.587786
21,0.505,0.265381,0.162842,1.190674,-30.091603,-31.908397,27.778626
21,0.51,0.229248,0.162842,1.220703,-20.145038,-36.770992,26.824427
21,0.516,0.191406,0.164795,1.259766,-12.007634,-43.282443,25.671756
21,0.527,0.142578,0.19873,1.258545,-7.175573,-56.19084,21.618321
21,0.533,0.125244,0.205811,1.251709,-6.068702,-64.557252,19.954198
21,0.538,0.102051,0.214844,1.217773,-6.549618,-66.938931,18.236641
21,0.544,0.065918,0.218018,1.190918,-9.099237,-74.48855,16.900763
21,0.549,0.032471,0.229736,1.150391,-10.885496,-80.89313,16.70229
21,0.555,0.016846,0.250977,1.112061,-11.832061,-86.374046,16.351145
21,0.56,-0.011475,0.263428,1.050293,-12.664122,-90.206107,17.351145
21,0.565,-0.036377,0.289307,0.986084,-10.89313,-94.687023,19.274809
21,0.577,-0.161377,0.350342,1.009277,-10.137405,-102.236641,24.954198
21,0.583,-0.217773,0.35791,0.982178,-10.801527,-104.977099,28.473282
21,0.588,-0.26416,0.374268,0.9729,-11.572519,-105.572519,31.839695
21,0.594,-0.296631,0.37915,0.965332,-12.274809,-105.137405,36.030534
21,0.599,-0.31665,0.387939,0.936768,-13.10687,-104.610687,40.48855
21,0.611,-0.354492,0.388428,0.873291,-11.053435,-104.687023,49.503817
21,0.616,-0.369873,0.367188,0.845215,-10.0,-104.48855,54.847328
21,0.622,-0.375977,0.370361,0.833008,-7.274809,-99.816794,60.21374
21,0.627,-0.422607,0.371826,0.845703,-3.129771,-98.862595,66.10687
21,0.633,-0.440918,0.374512,0.847412,-1.839695,-96.572519,71.618321
21,0.643,-0.470703,0.353271,0.849854,-0.19084,-93.061069,81.923664
21,0.649,-0.465088,0.336182,0.846924,-0.671756,-90.687023,85.977099
21,0.655,-0.452393,0.294434,0.842041,-1.0,-89.648855,89.40458
21,0.661,-0.442871,0.259033,0.839111,-1.137405,-88.290076,92.007634
21,0.666,-0.44043,0.217529,0.837891,-1.236641,-86.564885,93.954198
21,0.671,-0.445801,0.191406,0.821289,-1.122137,-85.007634,94.755725
21,0.682,-0.445312,0.131592,0.815674,-0.625954,-81.312977,93.229008
21,0.688,-0.442383,0.10376,0.82373,-1.137405,-79.381679,91.152672
21,0.693,-0.460938,0.093018,0.858643,-2.0,-78.10687,88.48855
21,0.7,-0.479004,0.080322,0.884766,-3.030534,-77.664122,85.320611
21,0.705,-0.486816,0.060791,0.905762,-3.671756,-77.335878,81.40458
21,0.71,-0.47998,0.052002,0.925293,-4.70229,-78.435115,77.045802
21,0.721,-0.471924,0.022949,0.932617,-5.778626,-82.076336,67.267176
21,0.727,-0.464844,0.011475,0.916992,-5.526718,-85.015267,62.305344
21,0.732,-0.453125,0.010254,0.875488,-4.694656,-87.099237,57.847328
21,0.739,-0.434082,0.008057,0.828369,-3.396947,-86.977099,52.832061
21,0.744,-0.422119,0.033447,0.811279,-0.908397,-87.59542,48.358779
21,0.749,-0.42334,0.052734,0.794434,1.89313,-86.992366,44.450382
21,0.755,-0.421143,0.074463,0.785645,2.290076,-86.061069,40.480916
21,0.766,-0.427734,0.10498,0.761475,4.801527,-82.89313,35.099237
21,0.771,-0.416992,0.118164,0.730469,6.068702,-80.862595,32.580153
21,0.777,-0.4021,0.138184,0.701904,7.19084,-78.229008,30.694656
21,0.783,-0.387939,0.143799,0.668945,8.145038,-75.328244,28.80916
21,0.788,-0.385742,0.151855,0.646484,8.648855,-72.648855,26.816794
21,0.794,-0.379883,0.152832,0.644775,10.526718,-70.435115,25.587786
21,0.799,-0.414795,0.172607,0.694092,12.167939,-66.419847,24.450382
21,0.81,-0.496338,0.154785,0.753662,18.122137,-63.748092,25.251908
21,0.816,-0.521973,0.170898,0.787109,20.923664,-63.961832,25.496183
21,0.821,-0.528809,0.175293,0.785645,22.931298,-66.068702,25.664122
21,0.827,-0.513916,0.167236,0.754639,22.648855,-66.717557,25.152672
21,0.833,-0.471436,0.158447,0.70874,22.534351,-68.167939,24.129771
21,0.838,-0.440186,0.130127,0.658447,22.450382,-67.541985,22.78626
21,0.844,-0.42041,0.114258,0.611328,21.824427,-67.030534,21.206107
21,0.849,-0.40625,0.104492,0.572021,21.824427,-64.351145,19.10687
22,0.342,-0.322021,0.228516,1.137695,9.496183,145.435115,-17.633588
22,0.347,-0.265625,0.252441,1.251953,4.694656,148.007634,-18.587786
22,0.353,-0.242432,0.327393,1.30835,-8.534351,146.160305,-18.549618
22,0.358,-0.279541,0.466553,1.361816,-30.648855,141.068702,-18.793893
22,0.364,-0.291016,0.67627,1.390381,-54.931298,135.175573,-20.0
22,0.374,-0.340332,0.692383,1.624756,-85.992366,109.099237,-6.312977
22,0.381,-0.246826,0.653076,1.669678,-91.145038,94.908397,2.328244
22,0.386,-0.123047,0.588623,1.624268,-91.824427,81.137405,12.427481
22,0.392,0.006592,0.563965,1.586426,-89.610687,67.496183,23.381679
22,0.397,0.130615,0.563721,1.49292,-86.801527,55.10687,33.664122
22,0.403,0.208984,0.585449,1.42041,-81.885496,42.183206,43.221374
22,0.408,0.299316,0.603027,1.389648,-77.396947,34.610687,51.931298
22,0.42,0.316406,0.588379,1.369141,-71.938931,7.229008,68.496183
22,0.425,0.35791,0.53833,1.345947,-66.801527,-3.519084,76.923664
22,0.431,0.369873,0.487793,1.339844,-60.801527,-12.641221,84.068702
22,0.436,0.378418,0.432861,1.328125,-53.526718,-22.259542,91.274809
22,0.442,0.396729,0.374756,1.317383,-48.396947,-32.10687,96.221374
22,0.447,0.391846,0.317139,1.291992,-43.038168,-41.679389,100.40458
22,0.452,0.397461,0.26001,1.270752,-39.450382,-51.557252,103.137405
22,0.464,0.368408,0.132568,1.231445,-34.839695,-68.19084,103.312977
22,0.47,0.341553,0.065186,1.230225,-32.030534,-75.412214,99.900763
22,0.475,0.307129,-0.011963,1.223877,-28.641221,-80.961832,98.083969
22,0.481,0.2771,-0.07251,1.218262,-26.89313,-87.572519,94.679389
22,0.486,0.251953,-0.118652,1.23291,-25.755725,-92.557252,89.259542
22,0.497,0.166992,-0.164551,1.246094,-23.480916,-101.862595,75.244275
22,0.502,0.114746,-0.174316,1.246094,-23.366412,-106.717557,66.977099
22,0.509,0.085938,-0.177734,1.248779,-22.480916,-110.290076,58.793893
22,0.514,0.033691,-0.162109,1.251709,-20.442748,-114.091603,50.687023
22,0.52,-0.001953,-0.152832,1.221191,-18.549618,-118.374046,43.59542
22,0.53,-0.066162,-0.099365,1.192383,-14.816794,-123.442748,30.969466
22,0.536,-0.116455,-0.086426,1.185791,-13.870229,-126.534351,26.007634
22,0.541,-0.157959,-0.046387,1.154541,-13.061069,-127.862595,21.633588
22,0.548,-0.184082,-0.014648,1.136475,-11.961832,-128.725191,17.78626
22,0.553,-0.229004,0.020508,1.176758,-11.770992,-129.236641,14.229008
22,0.564,-0.386475,0.033447,1.256104,-9.671756,-133.145038,9.900763
22,0.569,-0.442139,0.050049,1.264648,-7.503817,-138.709924,9.748092
22,0.575,-0.470215,0.075439,1.232422,-4.732824,-144.709924,10.450382
22,0.58,-0.461426,0.100342,1.181641,-2.19084,-150.80916,11.564885
22,0.586,-0.439697,0.133057,1.122314,-0.221374,-154.618321,13.21374
22,0.597,-0.395996,0.210938,0.96875,0.236641,-157.267176,17.694656
22,0.603,-0.367188,0.238525,0.906006,-0.916031,-155.862595,20.48855
22,0.608,-0.349121,0.260742,0.869873,-2.59542,-152.175573,22.908397
22,0.614,-0.350342,0.273926,0.868164,-4.160305,-146.984733,25.847328
22,0.619,-0.412842,0.27417,0.929688,-5.541985,-142.152672,29.061069
22,0.63,-0.558594,0.230957,1.037842,-5.992366,-138.824427,36.503817
22,0.637,-0.617676,0.201172,1.078125,-3.824427,-139.068702,40.847328
22,0.642,-0.677734,0.15918,1.138672,-0.099237,-142.175573,45.320611
22,0.647,-0.746582,0.105469,1.170654,4.267176,-146.167939,50.633588
22,0.653,-0.793213,0.03418,1.17749,10.038168,-151.503817,55.793893
22,0.664,-0.756836,-0.013428,1.070068,20.80916,-161.709924,64.946565
22,0.669,-0.716064,0.002686,0.984619,24.534351,-163.717557,67.435115
22,0.674,-0.703857,-0.007324,0.927246,25.40458,-163.435115,68.877863
22,0.681,-0.677246,-0.024414,0.865967,25.076336,-161.183206,70.175573
22,0.686,-0.655762,-0.041992,0.813965,24.267176,-158.374046,70.717557
22,0.697,-0.626221,-0.067139,0.740723,21.587786,-150.381679,69.129771
22,0.703,-0.622803,-0.090088,0.725098,18.160305,-145.59542,66.679389
22,0.708,-0.626953,-0.108887,0.7229,14.496183,-142.083969,63.229008
22,0.713,-0.637451,-0.127686,0.724854,10.778626,-139.152672,59.091603
22,0.72,-0.632568,-0.159912,0.698975,7.549618,-137.167939,53.412214
22,0.731,-0.67041,-0.279785,0.676758,8.076336,-132.442748,40.541985
22,0.736,-0.717529,-0.329834,0.674561,13.076336,-130.328244,32.412214
22,0.742,-0.773193,-0.35376,0.63916,19.709924,-128.259542,23.251908
22,0.747,-0.802246,-0.330566,0.600586,26.763359,-126.824427,14.847328
22,0.752,-0.791504,-0.263916,0.502441,32.984733,-124.450382,7.419847
23,0.963,-0.416016,0.197266,1.157471,8.465649,206.053435,-22.633588
23,0.969,-0.458252,0.241699,1.167236,3.320611,217.877863,-29.152672
23,0.981,-0.728027,0.404297,1.307373,-27.435115,231.824427,-52.740458
23,0.986,-0.821777,0.680176,1.399658,-62.824427,225.618321,-69.59542
23,0.991,-0.864258,1.093018,1.344971,-101.335878,218.465649,-84.610687
23,0.997,-0.619629,1.332275,1.582275,-137.755725,206.80916,-91.580153
23,1.008,-0.422119,1.86084,1.659668,-213.557252,160.099237,-65.21374
23,1.013,-0.797852,1.410156,1.640137,-233.068702,147.572519,-28.969466
23,1.019,-0.765137,1.387695,1.999939,-216.656489,120.961832,15.564885
23,1.025,-0.538086,1.305908,1.999939,-195.305344,94.251908,56.824427
23,1.036,0.079346,1.255615,1.808105,-152.534351,44.236641,126.206107
23,1.041,0.302734,1.229248,1.567871,-138.152672,26.015267,150.465649
23,1.047,0.476318,1.179199,1.331055,-134.19084,17.931298,169.328244
23,1.052,0.532227,1.057617,1.212891,-134.412214,8.51145,183.374046
23,1.058,0.545166,0.886475,1.172852,-135.038168,-3.496183,194.343511
23,1.069,0.553955,0.49292,1.206543,-122.030534,-24.465649,204.671756
23,1.075,0.554443,0.306152,1.246826,-112.664122,-32.923664,204.053435
23,1.08,0.480713,0.286621,1.200195,-104.419847,-44.587786,202.160305
23,1.086,0.640869,0.154297,1.131592,-104.961832,-49.053435,194.801527
23,1.097,0.516357,-0.44751,1.416748,-81.061069,-65.305344,167.229008
23,1.102,0.474609,-0.394775,1.424561,-60.687023,-82.625954,155.045802
23,1.108,0.530518,-0.303711,1.357666,-47.931298,-94.648855,139.29771
23,1.114,0.486572,-0.233154,1.380859,-41.954198,-101.931298,122.114504
23,1.125,0.268066,-0.198975,1.464844,-39.977099,-119.045802,88.793893
23,1.13,0.226562,-0.208252,1.472412,-37.717557,-128.557252,75.076336
23,1.136,0.144043,-0.219971,1.471191,-31.335878,-141.679389,62.412214
23,1.141,0.095703,-0.228516,1.471191,-22.51145,-153.160305,51.877863
23,1.153,-0.007324,-0.181152,1.377441,-3.587786,-171.007634,35.19084
23,1.158,-0.0625,-0.116699,1.307861,4.29771,-176.885496,28.221374
23,1.164,-0.133789,-0.05249,1.272949,10.183206,-183.564885,22.427481
23,1.169,-0.184082,0.011719,1.223389,15.40458,-187.641221,17.343511
23,1.174,-0.232422,0.088379,1.174316,20.061069,-191.732824,13.641221
23,1.185,-0.342041,0.190918,1.092285,21.083969,-192.450382,8.534351
23,1.191,-0.390137,0.217041,1.057129,20.89313,-192.091603,7.137405
23,1.197,-0.443359,0.254395,1.031738,18.389313,-192.717557,7.015267
23,1.203,-0.481689,0.267578,1.006104,16.938931,-191.282443,6.954198
23,1.208,-0.526367,0.302002,1.015381,13.740458,-191.068702,7.641221
23,1.219,-0.612793,0.350098,1.026123,7.10687,-187.480916,9.572519
23,1.224,-0.69751,0.336914,1.060791,6.587786,-187.70229,12.335878
23,1.23,-0.770752,0.311768,1.107422,6.992366,-189.29771,15.832061
23,1.236,-0.862793,0.321289,1.163818,10.89313,-192.328244,20.694656
23,1.242,-0.93042,0.307129,1.218506,17.351145,-197.725191,27.183206
23,1.252,-0.981934,0.306641,1.217041,32.068702,-208.748092,42.183206
23,1.258,-0.975098,0.287598,1.208008,42.053435,-214.618321,50.770992
23,1.263,-0.983643,0.279541,1.182617,49.641221,-217.427481,58.473282
23,1.269,-0.982666,0.262207,1.156738,58.160305,-220.335878,66.549618
23,1.281,-0.988037,0.298584,1.059814,70.122137,-220.51145,80.129771
23,1.286,-1.001709,0.277588,1.013428,72.137405,-216.641221,85.717557
23,1.291,-1.012695,0.252686,1.003662,73.816794,-211.725191,91.137405
23,1.297,-1.041016,0.214844,0.96582,75.076336,-206.580153,96.21374
23,1.308,-1.180176,0.035889,0.910156,77.175573,-195.068702,106.0
23,1.313,-1.330078,-0.341797,0.869873,83.618321,-189.389313,116.091603
23,1.319,-1.294434,-0.435547,0.937012,91.244275,-194.038168,120.770992
23,1.325,-1.204346,-0.325684,0.710449,95.274809,-187.885496,119.022901
23,1.336,-1.167725,-0.187988,0.600342,76.389313,-175.091603,107.48855
23,1.341,-1.123291,-0.248779,0.538086,62.21374,-165.419847,100.954198
23,1.347,-1.282959,-0.374268,0.577393,56.755725,-156.717557,90.778626
23,1.352,-1.496582,-0.350098,0.544189,47.618321,-155.48855,76.740458
23,1.364,-1.646729,-0.298828,0.190674,28.175573,-147.114504,42.725191
23,1.369,-1.658691,-0.29248,-0.00708,19.129771,-142.916031,26.114504
23,1.375,-1.655273,-0.345703,-0.265137,14.0,-136.648855,12.664122
23,1.38,-1.674561,-0.386719,-0.503906,15.503817,-126.083969,2.687023
23,1.391,-1.756836,-0.399658,-0.994629,25.10687,-97.389313,-14.29771
23,1.397,-1.772949,-0.332275,-1.1521,24.923664,-75.572519,-23.78626
24,0.455,-0.339355,0.359375,1.153076,-41.458015,52.679389,-76.633588
24,0.46,-0.187988,0.516113,1.35498,-57.137405,45.450382,-69.923664
24,0.471,0.130371,0.896729,1.393555,-52.030534,52.977099,-36.916031
24,0.477,0.198975,1.032471,1.24707,-37.206107,50.580153,-17.29771
24,0.482,0.275146,1.14209,1.222412,-35.824427,44.427481,0.816794
24,0.487,0.22168,1.119629,1.186523,-39.458015,42.427481,21.061069
24,0.493,0.32666,1.041748,1.258545,-40.877863,35.694656,40.80916
24,0.499,0.488525,0.918701,1.313232,-40.603053,37.664122,57.679389
24,0.505,0.58667,0.783447,1.188477,-39.328244,43.664122,69.969466
24,0.515,0.718994,0.437012,1.104492,-23.78626,19.419847,85.977099
24,0.521,0.736572,0.367188,1.118652,-19.21374,11.335878,88.381679
24,0.526,0.703369,0.125977,1.19873,-9.59542,1.732824,88.160305
24,0.532,0.679932,-0.032715,1.289062,-1.519084,-1.244275,84.48855
24,0.537,0.668945,-0.145996,1.312256,6.778626,-5.427481,77.671756
24,0.544,0.650879,-0.263428,1.342773,12.053435,-11.748092,69.244275
24,0.554,0.569336,-0.270752,1.416016,22.068702,-33.312977,49.885496
24,0.56,0.52002,-0.220459,1.435059,26.51145,-48.221374,41.053435
24,0.565,0.440186,-0.145752,1.47168,29.679389,-64.541985,33.320611
24,0.571,0.388916,-0.074463,1.492676,34.442748,-79.480916,27.221374
24,0.576,0.332764,-0.02417,1.500244,35.572519,-84.496183,22.687023
24,0.588,0.226074,0.067871,1.39917,31.763359,-102.70229,17.748092
24,0.593,0.179443,0.107178,1.358643,32.633588,-111.923664,16.587786
24,0.599,0.128418,0.125977,1.313477,35.664122,-124.030534,16.51145
24,0.604,0.067139,0.168701,1.270264,37.580153,-132.374046,15.389313
24,0.61,0.021729,0.192871,1.222412,39.335878,-139.244275,14.709924
24,0.615,-0.03418,0.224609,1.175293,39.625954,-143.48855,13.70229
24,0.627,-0.10791,0.253906,1.068359,47.206107,-140.091603,12.580153
24,0.632,-0.143555,0.229248,0.952637,45.603053,-140.0,11.687023
24,0.638,-0.182617,0.259277,0.959961,47.603053,-137.847328,11.541985
24,0.643,-0.185059,0.260742,0.823975,53.992366,-135.450382,11.946565
24,0.649,-0.225342,0.262451,0.815918,46.229008,-124.732824,11.145038
24,0.654,-0.283447,0.284668,0.792236,45.916031,-119.229008,12.167939
24,0.665,-0.412842,0.350586,0.879883,58.175573,-98.885496,16.89313
24,0.671,-0.497803,0.395508,0.926514,63.221374,-93.687023,21.076336
24,0.677,-0.55957,0.416016,0.981445,68.694656,-86.503817,26.801527
24,0.682,-0.626221,0.427002,1.023193,73.10687,-81.061069,32.358779
24,0.688,-0.68042,0.454102,1.070557,75.549618,-79.679389,38.274809
24,0.693,-0.739502,0.444092,1.11792,78.381679,-82.51145,45.427481
24,0.704,-0.787354,0.382568,1.06543,80.366412,-91.221374,58.641221
24,0.71,-0.737305,0.328369,0.959229,78.099237,-100.137405,64.038168
24,0.716,-0.703125,0.255371,0.856445,76.290076,-106.137405,67.022901
24,0.721,-0.677246,0.165283,0.764893,68.099237,-105.832061,67.435115
24,0.727,-0.648682,0.092285,0.68042,61.717557,-109.984733,65.816794
24,0.732,-0.661377,0.05835,0.63916,58.862595,-106.80916,63.129771
24,0.743,-0.692627,0.030762,0.595703,56.78626,-83.450382,54.473282
24,0.748,-0.769043,0.060059,0.645264,56.984733,-75.435115,50.633588
24,0.755,-0.819824,0.120605,0.658447,62.290076,-54.557252,47.610687
24,0.76,-0.912842,0.177246,0.672607,68.778626,-44.015267,46.648855
24,0.766,-0.976318,0.240723,0.717041,73.473282,-37.465649,46.572519
24,0.771,-1.071777,0.327881,0.717041,75.29771,-32.59542,47.015267
24,0.777,-1.14624,0.340088,0.750977,78.885496,-45.961832,50.694656
24,0.787,-1.227783,0.367676,0.737793,80.122137,-61.641221,59.503817
24,0.793,-1.226562,0.368652,0.604248,73.290076,-78.374046,63.40458
24,0.799,-1.193359,0.354248,0.435303,63.129771,-93.587786,65.977099
24,0.805,-1.141602,0.310303,0.313477,60.015267,-98.862595,67.977099
24,0.81,-1.073242,0.255615,0.078125,53.755725,-102.343511,68.641221
24,0.815,-1.060059,0.203125,-0.006348,48.519084,-97.717557,68.396947
24,0.826,-1.074707,0.155518,-0.186768,36.259542,-57.10687,64.320611
24,0.832,-1.110596,0.162109,-0.155273,31.923664,-36.091603,61.923664
24,0.838,-1.181152,0.158936,-0.145996,21.282443,-17.221374,59.290076
24,0.844,-1.156494,0.183838,-0.519775,21.259542,9.412214,60.603053
24,0.849,-1.12085,0.103271,-0.422607,7.076336,30.236641,51.763359
24,0.854,-1.117676,0.148438,-0.78833,-1.022901,54.954198,49.465649
24,0.86,-1.38501,0.065918,-0.770508,-17.748092,72.473282,37.885496
25,0.07,-0.347412,0.456787,1.105469,-0.931298,67.954198,-82.59542
25,0.075,-0.2771,0.481689,1.09668,-5.549618,67.961832,-91.656489
25,0.08,-0.224121,0.472412,1.268799,-9.229008,76.89313,-95.89313
25,0.086,0.033691,0.893311,1.518555,-16.740458,59.687023,-86.709924
25,0.091,0.207764,1.262207,1.697998,-22.564885,55.557252,-68.442748
25,0.097,0.408936,1.543701,1.572754,-11.931298,58.603053,-42.160305
25,0.102,0.505615,1.564697,1.51709,2.580153,50.389313,-12.748092
25,0.108,0.501709,1.462646,1.341309,4.526718,50.763359,12.198473
25,0.114,0.677246,1.407227,1.472412,-14.709924,29.70229,32.610687
25,0.125,1.112549,0.968262,1.336914,-26.374046,18.045802,62.801527
25,0.13,1.214355,0.710693,1.338867,-18.160305,9.030534,71.519084
25,0.136,1.269531,0.305664,1.395508,-7.312977,-2.282443,76.564885
25,0.141,1.313965,-0.026123,1.419678,4.21374,-8.900763,75.954198
25,0.147,1.333496,-0.238525,1.581787,20.832061,-10.541985,68.664122
25,0.153,1.28833,-0.31665,1.661133,30.175573,-21.473282,56.351145
25,0.164,1.134033,-0.365967,1.804199,34.641221,-58.114504,27.366412
25,0.169,1.023682,-0.359131,1.858398,37.083969,-78.19084,14.412214
25,0.175,0.935303,-0.303955,1.841553,45.419847,-95.083969,5.099237
25,0.18,0.902588,-0.221924,1.749023,56.366412,-113.267176,-1.244275
25,0.191,0.688477,-0.017822,1.563232,47.618321,-132.984733,-7.618321
25,0.197,0.596924,0.099609,1.477051,45.793893,-140.816794,-7.580153
25,0.203,0.514404,0.158447,1.378662,46.938931,-142.015267,-6.259542
25,0.208,0.407227,0.209961,1.245117,47.29771,-143.992366,-4.152672
25,0.214,0.339111,0.264404,1.050049,43.458015,-145.587786,-2.343511
25,0.224,0.210938,0.224609,0.748291,39.068702,-144.648855,0.732824
25,0.23,0.008789,0.416016,0.871826,43.908397,-147.259542,1.251908
25,0.235,0.00415,0.362305,0.779785,49.770992,-116.656489,4.007634
25,0.242,-0.100342,0.365234,0.645508,43.908397,-95.70229,5.961832
25,0.247,-0.171631,0.400635,0.608643,43.938931,-81.908397,8.503817
25,0.253,-0.240479,0.401855,0.603516,50.175573,-52.320611,10.534351
25,0.258,-0.303955,0.413818,0.563965,54.839695,-34.519084,13.534351
25,0.269,-0.40332,0.368652,0.556641,65.40458,-4.244275,21.183206
25,0.274,-0.481689,0.375977,0.613525,71.0,11.076336,25.694656
25,0.281,-0.557129,0.403809,0.669678,77.816794,25.320611,30.740458
25,0.286,-0.668945,0.436768,0.743408,80.709924,32.648855,35.725191
25,0.292,-0.786865,0.443604,0.797363,84.030534,31.038168,40.916031
25,0.297,-0.864258,0.483154,0.886475,92.160305,41.167939,46.251908
25,0.308,-1.089355,0.578857,0.92334,83.954198,36.251908,54.824427
25,0.313,-1.174561,0.613525,0.935303,73.251908,30.442748,58.679389
25,0.319,-1.309814,0.629639,1.116943,72.946565,14.076336,65.381679
25,0.325,-1.414795,0.624023,1.212646,87.48855,12.832061,76.366412
25,0.331,-1.571533,0.647705,1.268066,84.534351,-8.80916,87.496183
25,0.336,-1.60376,0.703857,1.244873,87.740458,-44.0,100.793893
25,0.347,-1.574951,0.582275,1.159424,94.022901,-82.961832,120.801527
25,0.352,-1.567871,0.542969,0.934326,93.152672,-103.503817,126.099237
25,0.358,-1.549072,0.442139,0.826904,72.21374,-121.70229,126.282443
25,0.363,-1.395996,0.25708,0.510254,62.770992,-147.229008,126.366412
25,0.37,-1.39917,0.101562,0.384277,75.763359,-143.442748,125.755725
25,0.38,-1.352783,-0.066406,0.093262,91.801527,-135.167939,116.503817
25,0.386,-1.306885,-0.127197,-0.122314,92.931298,-122.061069,107.931298
25,0.391,-1.278564,-0.161377,-0.240723,102.709924,-112.061069,100.160305
25,0.397,-1.279785,-0.164062,-0.382568,114.290076,-110.770992,92.664122
25,0.402,-1.297607,-0.15332,-0.426025,115.282443,-88.19084,83.51145
25,0.414,-1.438232,-0.04541,-0.453125,118.480916,-67.549618,70.053435
25,0.419,-1.522705,0.007812,-0.407227,112.854962,-50.496183,65.717557
25,0.425,-1.625977,0.104736,-0.393066,99.267176,-41.618321,63.022901
25,0.43,-1.361816,0.286133,-0.48999,85.412214,-32.992366,67.580153
25,0.436,-1.7771,0.239014,-1.141113,49.374046,3.954198,50.198473
25,0.441,-1.526367,0.073486,-1.244385,29.732824,-16.80916,52.061069
25,0.446,-1.547119,0.263184,-1.494873,-13.29771,15.21374,35.793893
25,0.458,-1.125488,-0.725342,-2.0,-121.48855,49.389313,-20.122137
25,0.464,1.186523,-1.783447,-1.648193,-125.366412,-51.89313,-45.007634
25,0.469,1.494385,-0.861572,0.765869,-118.175573,-89.717557,-78.519084
25,0.475,0.311523,-0.288086,1.999939,-75.687023,2.21374,-87.152672
26,1.051,-0.097656,0.294678,1.280029,-34.427481,71.145038,-43.427481
26,1.057,-0.032959,0.845703,1.214844,-25.816794,75.580153,-36.396947
26,1.062,0.089355,1.219971,1.391113,-14.687023,81.526718,-22.534351
26,1.067,0.173096,1.416016,1.395996,-13.832061,81.0,-5.687023
26,1.079,0.237549,1.314209,1.537354,-15.343511,89.320611,24.732824
26,1.085,0.405518,1.125732,1.415771,-1.534351,68.717557,49.351145
26,1.09,0.553711,0.968506,1.302979,-1.847328,73.320611,60.564885
26,1.096,0.670166,0.831299,1.209229,-16.755725,58.435115,71.244275
26,1.101,0.767334,0.643311,1.123291,-29.664122,28.305344,74.961832
26,1.112,0.900391,0.148682,1.255859,-21.740458,13.709924,76.305344
26,1.118,0.92749,-0.133057,1.335205,-4.030534,-0.526718,72.435115
26,1.124,0.915039,-0.233887,1.491943,11.885496,3.381679,63.129771
26,1.129,0.876465,-0.236816,1.553223,20.259542,3.633588,50.549618
26,1.135,0.823486,-0.240967,1.594727,23.29771,-3.167939,38.167939
26,1.14,0.749756,-0.227051,1.614014,25.832061,-17.587786,27.244275
26,1.151,0.642822,-0.108154,1.554932,33.984733,-36.053435,14.038168
26,1.156,0.559326,-0.009277,1.504639,43.763359,-53.603053,12.122137
26,1.163,0.481934,0.070312,1.480957,54.015267,-63.152672,12.290076
26,1.168,0.382324,0.173096,1.389893,57.656489,-76.694656,14.068702
26,1.174,0.306396,0.224121,1.327881,61.70229,-87.374046,17.137405
26,1.179,0.278076,0.24292,1.133545,54.083969,-95.419847,18.40458
26,1.19,0.121338,0.331787,1.201172,69.755725,-102.396947,29.977099
26,1.195,0.001953,0.312744,0.908203,40.580153,-121.343511,34.358779
26,1.201,-0.049805,0.368408,0.84375,27.366412,-122.374046,37.770992
26,1.207,-0.043945,0.374756,0.82959,22.717557,-141.770992,42.465649
26,1.213,-0.093262,0.379395,0.834961,21.89313,-121.396947,45.847328
26,1.218,-0.218262,0.396484,0.830322,23.320611,-105.48855,51.435115
26,1.229,-0.342285,0.429199,0.891846,25.450382,-73.122137,61.0
26,1.234,-0.393066,0.423096,0.888184,19.396947,-65.206107,65.778626
26,1.24,-0.488525,0.397217,1.027344,24.824427,-55.145038,72.763359
26,1.246,-0.61499,0.391113,1.123291,28.038168,-54.954198,79.748092
26,1.251,-0.64917,0.389404,1.138184,26.068702,-48.435115,86.167939
26,1.257,-0.694824,0.369873,1.157715,19.847328,-51.877863,91.290076
26,1.268,-0.640381,0.27832,0.977539,-1.114504,-88.206107,97.870229
26,1.273,-0.63916,0.213623,0.92334,-11.671756,-104.519084,97.80916
26,1.279,-0.595947,0.08667,0.889404,-12.48855,-88.900763,97.557252
26,1.284,-0.628418,0.026367,0.800537,-13.603053,-97.076336,97.015267
26,1.29,-0.570068,0.004395,0.689697,-11.755725,-99.465649,94.496183
26,1.301,-0.569336,-0.012207,0.666748,-8.038168,-77.038168,84.572519
26,1.307,-0.599854,-0.02124,0.5354,-3.969466,-67.885496,79.389313
26,1.312,-0.645996,-0.104004,0.453857,-7.908397,-66.503817,76.442748
26,1.318,-0.520752,0.03418,0.545166,-4.160305,-30.10687,64.435115
26,1.323,-0.684082,0.001953,0.57666,12.335878,6.725191,62.091603
26,1.328,-0.81543,0.018555,0.63208,8.282443,-28.198473,59.519084
26,1.34,-0.931885,0.047607,0.765381,14.59542,-20.709924,55.259542
26,1.346,-0.892822,0.162842,0.831055,29.053435,-9.564885,49.580153
26,1.351,-0.975098,0.09668,0.790283,31.412214,6.122137,47.122137
26,1.357,-0.994141,0.057861,0.674561,18.0,-50.206107,44.961832
26,1.362,-0.88501,0.026855,0.626953,25.442748,-45.580153,39.641221
26,1.367,-0.888916,0.032471,0.443115,35.427481,-62.923664,36.610687
26,1.374,-0.838867,0.019043,0.338379,24.679389,-76.442748,29.877863
26,1.385,-0.776855,0.039062,0.226807,13.030534,-66.251908,17.366412
26,1.39,-0.762939,0.025146,0.156982,14.458015,-46.312977,13.19084
26,1.396,-0.775146,0.06543,0.105957,6.526718,-35.10687,9.053435
26,1.401,-0.766113,0.077881,0.071045,-2.0,-28.656489,5.763359
26,1.406,-0.74292,0.109619,0.029785,-6.114504,-9.198473,3.832061
26,1.412,-0.75708,0.12793,0.052002,-9.038168,9.969466,2.244275
26,1.418,-0.782959,0.142334,0.117676,-9.656489,31.977099,1.610687
26,1.424,-0.835205,0.160889,0.150879,-13.10687,46.648855,1.687023
26,1.429,-0.853027,0.185547,0.209473,-18.458015,49.923664,2.351145
26,1.435,-0.869385,0.22876,0.273438,-21.183206,53.564885,2.89313
26,1.44,-0.922119,0.23877,0.385254,-20.312977,54.022901,4.0
26,1.445,-0.966797,0.281738,0.466553,-21.282443,53.557252,5.938931
26,1.451,-0.999268,0.314941,0.603271,-26.564885,44.381679,7.045802
27,0.001,0.062012,1.377441,1.068359,14.122137,4.328244,-3.877863
27,0.014,0.237061,1.201172,1.114746,-6.992366,0.557252,21.931298
27,0.025,0.384277,0.848877,1.203125,-34.778626,-1.564885,27.725191
27,0.036,0.447021,0.579102,1.284912,-44.625954,-13.007634,21.435115
27,0.047,0.451904,0.470215,1.314697,-23.564885,-30.618321,11.465649
27,0.064,0.518066,0.462158,1.181152,-5.564885,-46.221374,-3.068702
27,0.075,0.465576,0.442871,1.121582,-0.251908,-53.167939,-8.801527
27,0.086,0.41333,0.445068,1.047852,2.778626,-50.160305,-12.916031
27,0.097,0.318848,0.483643,0.997803,3.687023,-44.78626,-15.458015
27,0.108,0.24292,0.526855,0.954834,2.59542,-20.755725,-9.419847
27,0.125,-0.044922,0.566895,1.112061,9.290076,-17.145038,16.320611
27,0.136,-0.108398,0.510254,1.076172,11.816794,-14.083969,34.29771
27,0.147,-0.111816,0.384033,0.983643,8.465649,-14.015267,46.534351
27,0.163,-0.234131,0.270264,1.102051,-11.847328,-12.381679,54.450382
27,0.175,-0.351318,0.240723,1.212158,-18.526718,-10.328244,56.175573
27,0.186,-0.362549,0.225586,1.234131,-27.129771,-16.503817,55.549618
27,0.202,-0.309326,0.199219,1.185547,-28.877863,-34.396947,55.320611
27,0.214,-0.366455,0.262695,1.171875,-12.862595,-49.358779,57.732824
27,0.225,-0.506836,0.356934,1.262207,2.473282,-66.732824,67.175573
27,0.241,-0.578125,0.460693,1.208496,12.801527,-91.061069,81.908397
27,0.253,-0.572998,0.406006,1.075439,9.870229,-108.458015,86.419847
27,0.269,-0.412109,0.266357,0.867188,7.335878,-119.671756,84.931298
27,0.28,-0.434326,0.198242,0.824707,7.679389,-117.29771,77.412214
27,0.291,-0.441895,0.145752,0.787842,11.21374,-107.862595,67.984733
27,0.308,-0.481689,0.168945,0.79834,15.938931,-97.099237,55.870229
27,0.319,-0.486572,0.186279,0.765381,24.053435,-93.290076,51.839695
27,0.33,-0.505859,0.188232,0.722168,30.244275,-93.183206,49.916031
27,0.347,-0.554932,0.162842,0.651611,43.885496,-85.862595,50.48855
27,0.358,-0.568604,0.152832,0.63208,53.954198,-80.641221,51.541985
27,0.369,-0.531982,0.170898,0.554443,55.053435,-79.458015,50.557252
27,0.381,-0.459961,0.104004,0.494629,50.725191,-72.374046,45.51145
27,0.397,-0.439209,0.044189,0.472168,34.091603,-58.122137,32.29771
27,0.408,-0.438721,0.060303,0.509033,26.198473,-51.725191,23.320611
27,0.419,-0.473389,0.126709,0.53418,22.068702,-46.29771,16.877863
27,0.431,-0.435303,0.168457,0.497314,18.519084,-47.916031,11.923664
27,0.442,-0.36499,0.185303,0.452881,14.847328,-49.78626,7.839695
